#  Created by Sandify
#  https://sandify.org
#  Version: 0.2.8
#
#  Machine type: Polar
#    Max radius (mm): 100
#    Start point: none
#    End point: none
#  Content type: shape
#  Layer:
#    Shape: Circle
#    Name: polygon
#    Number of lobes: 1
#    Direction: clockwise
#    Visible: true
#    Initial width: 4
#    Initial height: 4
#    X offset: 0
#    Y offset: 0
#    Rotate (degrees): 0
#    Reverse path: true
#    Number of loops: 45
#    When transforming shape: smear
#    Scale: true
#      Scale (+/-): 52
#      Scale by: constant
#    Spin: false
#    Track: false
#    Fine tuning:
#      Connect to next layer: line
#      Draw portion of path (%): 100
#      Backtrack at end (%): 0
#      Rotate starting point (%): 0
#  Reverse export path: false
#
# File name: 'spiral_finer'
# File type: thetarho
#

1.61988 0.30739
1.64038 0.30728
1.66088 0.30730
1.66897 0.30734
1.68947 0.30723
1.70997 0.30724
1.71806 0.30729
1.73856 0.30717
1.75907 0.30719
1.76714 0.30724
1.78765 0.30712
1.80816 0.30714
1.81623 0.30718
1.83674 0.30707
1.85726 0.30709
1.86532 0.30713
1.88583 0.30702
1.90635 0.30704
1.91441 0.30708
1.93492 0.30697
1.95544 0.30699
1.96349 0.30703
1.98401 0.30692
2.00454 0.30694
2.01258 0.30698
2.03311 0.30687
2.05364 0.30689
2.06167 0.30693
2.08220 0.30682
2.10273 0.30684
2.11076 0.30688
2.13129 0.30677
2.15183 0.30678
2.15984 0.30682
2.18038 0.30671
2.20092 0.30673
2.20893 0.30677
2.22947 0.30666
2.25001 0.30668
2.25802 0.30672
2.27856 0.30661
2.29910 0.30663
2.30711 0.30667
2.32765 0.30656
2.34820 0.30658
2.35619 0.30662
2.37674 0.30651
2.39730 0.30653
2.40528 0.30657
2.42583 0.30646
2.44639 0.30648
2.45437 0.30652
2.47493 0.30641
2.49549 0.30642
2.50346 0.30647
2.52402 0.30636
2.54458 0.30637
2.55254 0.30642
2.57310 0.30630
2.59367 0.30632
2.60163 0.30637
2.62220 0.30625
2.64277 0.30627
2.65072 0.30631
2.67128 0.30620
2.69186 0.30622
2.69980 0.30626
2.72037 0.30615
2.74095 0.30617
2.74889 0.30621
2.76946 0.30610
2.79005 0.30612
2.79798 0.30616
2.81855 0.30605
2.83914 0.30607
2.84707 0.30611
2.86765 0.30600
2.88824 0.30601
2.89616 0.30606
2.91674 0.30595
2.93733 0.30596
2.94524 0.30601
2.96583 0.30589
2.98643 0.30591
2.99433 0.30595
3.01492 0.30584
3.03552 0.30586
3.04341 0.30590
3.06401 0.30579
3.08461 0.30581
3.09251 0.30585
3.11311 0.30574
3.13371 0.30576
3.14159 0.30580
3.16220 0.30569
3.18280 0.30571
3.19068 0.30575
3.21129 0.30564
3.23190 0.30566
3.23976 0.30570
3.26037 0.30559
3.28099 0.30561
3.28885 0.30565
3.30946 0.30554
3.33008 0.30556
3.33795 0.30560
3.35856 0.30549
3.37918 0.30551
3.38703 0.30555
3.40765 0.30543
3.42828 0.30545
3.43612 0.30549
3.45675 0.30538
3.47738 0.30540
3.48520 0.30544
3.50583 0.30533
3.52646 0.30535
3.53429 0.30539
3.55492 0.30528
3.57556 0.30530
3.58338 0.30534
3.60402 0.30523
3.62466 0.30525
3.63247 0.30529
3.65311 0.30518
3.67375 0.30520
3.68155 0.30524
3.70219 0.30513
3.72284 0.30515
3.73064 0.30519
3.75128 0.30508
3.77193 0.30510
3.77973 0.30514
3.80038 0.30503
3.82103 0.30505
3.82882 0.30509
3.84947 0.30497
3.87013 0.30499
3.87790 0.30503
3.89856 0.30492
3.91922 0.30494
3.92699 0.30498
3.94765 0.30487
3.96831 0.30489
3.97608 0.30493
3.99674 0.30482
4.01741 0.30484
4.02517 0.30488
4.04583 0.30477
4.06651 0.30479
4.07425 0.30483
4.09492 0.30472
4.11559 0.30474
4.12334 0.30478
4.14401 0.30467
4.16469 0.30469
4.17243 0.30473
4.19310 0.30462
4.21378 0.30464
4.22151 0.30468
4.24219 0.30457
4.26288 0.30458
4.27060 0.30462
4.29129 0.30451
4.31197 0.30453
4.31969 0.30457
4.34037 0.30446
4.36106 0.30448
4.36878 0.30452
4.38947 0.30441
4.41017 0.30443
4.41787 0.30447
4.43856 0.30436
4.45926 0.30438
4.46695 0.30442
4.48765 0.30431
4.50835 0.30433
4.51603 0.30437
4.53673 0.30426
4.55744 0.30428
4.56513 0.30432
4.58583 0.30421
4.60654 0.30423
4.61421 0.30427
4.63492 0.30415
4.65563 0.30417
4.66330 0.30422
4.68401 0.30410
4.70473 0.30412
4.71239 0.30416
4.73310 0.30405
4.75382 0.30407
4.76147 0.30411
4.78219 0.30400
4.80291 0.30402
4.81056 0.30406
4.83128 0.30395
4.85201 0.30397
4.85965 0.30401
4.88037 0.30390
4.90110 0.30392
4.90874 0.30396
4.92946 0.30385
4.95020 0.30387
4.95782 0.30391
4.97855 0.30380
4.99929 0.30382
5.00692 0.30386
5.02765 0.30375
5.04839 0.30377
5.05600 0.30380
5.07674 0.30369
5.09749 0.30371
5.10509 0.30376
5.12583 0.30364
5.14657 0.30366
5.15417 0.30370
5.17492 0.30359
5.19567 0.30361
5.20326 0.30365
5.22401 0.30354
5.24476 0.30356
5.25235 0.30360
5.27310 0.30349
5.29386 0.30351
5.30144 0.30355
5.32219 0.30344
5.34296 0.30346
5.35053 0.30350
5.37129 0.30339
5.39205 0.30341
5.39962 0.30345
5.42038 0.30334
5.44115 0.30336
5.44870 0.30340
5.46946 0.30329
5.49023 0.30330
5.49779 0.30334
5.51856 0.30323
5.53933 0.30325
5.54688 0.30329
5.56765 0.30318
5.58843 0.30320
5.59597 0.30324
5.61674 0.30313
5.63753 0.30315
5.64505 0.30319
5.66583 0.30308
5.68662 0.30310
5.69414 0.30314
5.71492 0.30303
5.73571 0.30305
5.74323 0.30309
5.76402 0.30298
5.78481 0.30300
5.79231 0.30304
5.81310 0.30293
5.83389 0.30295
5.84140 0.30299
5.86219 0.30287
5.88299 0.30290
5.89048 0.30293
5.91128 0.30282
5.93208 0.30284
5.93958 0.30288
5.96038 0.30277
5.98118 0.30279
5.98866 0.30283
6.00947 0.30272
6.03028 0.30274
6.03774 0.30278
6.05855 0.30267
6.07937 0.30269
6.08684 0.30273
6.10765 0.30262
6.12847 0.30264
6.13593 0.30268
6.15674 0.30257
6.17756 0.30259
6.18501 0.30263
6.20583 0.30252
6.22665 0.30254
6.23410 0.30258
6.25492 0.30247
6.27575 0.30249
6.28319 0.30253
6.30401 0.30242
6.32484 0.30244
6.33228 0.30247
6.35311 0.30236
6.37394 0.30238
6.38136 0.30242
6.40219 0.30231
6.42303 0.30233
6.43045 0.30237
6.45129 0.30226
6.47213 0.30228
6.47954 0.30232
6.50038 0.30221
6.52122 0.30223
6.52862 0.30227
6.54946 0.30216
6.57031 0.30218
6.57771 0.30222
6.59856 0.30211
6.61941 0.30213
6.62680 0.30217
6.64765 0.30206
6.66851 0.30208
6.67588 0.30212
6.69674 0.30201
6.71760 0.30203
6.72497 0.30207
6.74583 0.30195
6.76669 0.30197
6.77406 0.30201
6.79492 0.30190
6.81579 0.30192
6.82315 0.30196
6.84401 0.30185
6.86489 0.30187
6.87224 0.30191
6.89311 0.30180
6.91398 0.30182
6.92132 0.30186
6.94219 0.30175
6.96307 0.30177
6.97041 0.30181
6.99129 0.30170
7.01217 0.30172
7.01950 0.30176
7.04038 0.30165
7.06126 0.30167
7.06858 0.30171
7.08947 0.30160
7.11035 0.30162
7.11767 0.30166
7.13855 0.30155
7.15945 0.30157
7.16676 0.30161
7.18765 0.30149
7.20854 0.30152
7.21585 0.30155
7.23674 0.30144
7.25764 0.30146
7.26494 0.30150
7.28583 0.30139
7.30673 0.30141
7.31402 0.30145
7.33492 0.30134
7.35583 0.30136
7.36311 0.30140
7.38401 0.30129
7.40492 0.30131
7.41219 0.30135
7.43310 0.30124
7.45401 0.30126
7.46128 0.30130
7.48219 0.30119
7.50311 0.30121
7.51037 0.30125
7.53128 0.30113
7.55220 0.30116
7.55946 0.30119
7.58038 0.30108
7.60130 0.30111
7.60855 0.30114
7.62947 0.30103
7.65040 0.30105
7.65763 0.30109
7.67855 0.30098
7.69948 0.30100
7.70672 0.30104
7.72765 0.30093
7.74858 0.30095
7.75580 0.30099
7.77674 0.30088
7.79767 0.30090
7.80489 0.30094
7.82583 0.30083
7.84677 0.30085
7.85398 0.30089
7.87492 0.30078
7.89587 0.30080
7.90307 0.30084
7.92401 0.30073
7.94496 0.30075
7.95215 0.30079
7.97310 0.30068
7.99405 0.30070
8.00125 0.30073
8.02220 0.30062
8.04315 0.30065
8.05033 0.30068
8.07128 0.30057
8.09224 0.30060
8.09942 0.30063
8.12038 0.30052
8.14134 0.30054
8.14851 0.30058
8.16947 0.30047
8.19043 0.30049
8.19759 0.30053
8.21855 0.30042
8.23952 0.30044
8.24668 0.30048
8.26765 0.30037
8.28862 0.30039
8.29577 0.30043
8.31674 0.30032
8.33772 0.30034
8.34485 0.30038
8.36583 0.30027
8.38681 0.30029
8.39394 0.30032
8.41492 0.30021
8.43590 0.30024
8.44303 0.30027
8.46401 0.30016
8.48500 0.30019
8.49211 0.30022
8.51310 0.30011
8.53409 0.30013
8.54121 0.30017
8.56220 0.30006
8.58319 0.30008
8.59030 0.30012
8.61129 0.30001
8.63229 0.30003
8.63938 0.30007
8.66038 0.29996
8.68138 0.29998
8.68847 0.30002
8.70947 0.29991
8.73047 0.29993
8.73755 0.29997
8.75856 0.29986
8.77957 0.29988
8.78664 0.29991
8.80765 0.29980
8.82866 0.29983
8.83573 0.29987
8.85674 0.29976
8.87775 0.29978
8.88482 0.29981
8.90583 0.29970
8.92685 0.29973
8.93391 0.29976
8.95493 0.29965
8.97595 0.29967
8.98299 0.29971
9.00401 0.29960
9.02504 0.29962
9.03208 0.29966
9.05310 0.29955
9.07413 0.29957
9.08117 0.29961
9.10219 0.29950
9.12323 0.29952
9.13026 0.29956
9.15129 0.29945
9.17233 0.29947
9.17934 0.29951
9.20038 0.29940
9.22142 0.29942
9.22843 0.29945
9.24947 0.29934
9.27052 0.29937
9.27751 0.29940
9.29855 0.29929
9.31960 0.29932
9.32660 0.29935
9.34765 0.29924
9.36870 0.29926
9.37569 0.29930
9.39674 0.29919
9.41780 0.29921
9.42478 0.29925
9.44583 0.29914
9.46689 0.29916
9.47387 0.29920
9.49493 0.29909
9.51599 0.29911
9.52295 0.29915
9.54401 0.29904
9.56508 0.29906
9.57204 0.29910
9.59310 0.29899
9.61417 0.29901
9.62113 0.29905
9.64220 0.29894
9.66327 0.29896
9.67021 0.29899
9.69128 0.29888
9.71236 0.29891
9.71930 0.29894
9.74038 0.29883
9.76146 0.29886
9.76839 0.29889
9.78946 0.29878
9.81055 0.29880
9.81748 0.29884
9.83856 0.29873
9.85965 0.29875
9.86656 0.29879
9.88765 0.29868
9.90874 0.29870
9.91565 0.29874
9.93674 0.29863
9.95784 0.29865
9.96474 0.29869
9.98583 0.29858
10.00693 0.29860
10.01383 0.29863
10.03493 0.29853
10.05603 0.29855
10.06292 0.29859
10.08402 0.29847
10.10513 0.29850
10.11200 0.29853
10.13311 0.29842
10.15422 0.29845
10.16108 0.29848
10.18219 0.29837
10.20331 0.29839
10.21018 0.29843
10.23129 0.29832
10.25241 0.29834
10.25926 0.29838
10.28038 0.29827
10.30150 0.29829
10.30835 0.29833
10.32947 0.29822
10.35059 0.29824
10.35744 0.29828
10.37856 0.29817
10.39969 0.29819
10.40652 0.29823
10.42765 0.29812
10.44878 0.29814
10.45562 0.29818
10.47675 0.29807
10.49788 0.29809
10.50470 0.29812
10.52583 0.29801
10.54697 0.29804
10.55379 0.29807
10.57492 0.29796
10.59607 0.29799
10.60287 0.29802
10.62401 0.29791
10.64516 0.29793
10.65196 0.29797
10.67310 0.29786
10.69425 0.29788
10.70105 0.29792
10.72220 0.29781
10.74336 0.29783
10.75013 0.29787
10.77128 0.29776
10.79244 0.29778
10.79922 0.29782
10.82038 0.29771
10.84154 0.29773
10.84832 0.29777
10.86947 0.29766
10.89064 0.29768
10.89740 0.29771
10.91856 0.29760
10.93973 0.29763
10.94648 0.29766
10.96765 0.29755
10.98882 0.29758
10.99557 0.29761
11.01674 0.29750
11.03792 0.29753
11.04466 0.29756
11.06583 0.29745
11.08701 0.29747
11.09374 0.29751
11.11492 0.29740
11.13610 0.29742
11.14284 0.29746
11.16402 0.29735
11.18520 0.29737
11.19192 0.29741
11.21310 0.29730
11.23429 0.29732
11.24101 0.29736
11.26220 0.29725
11.28339 0.29727
11.29010 0.29730
11.31129 0.29719
11.33249 0.29722
11.33919 0.29725
11.36038 0.29714
11.38158 0.29717
11.38827 0.29720
11.40947 0.29709
11.43068 0.29712
11.43736 0.29715
11.45856 0.29704
11.47977 0.29707
11.48645 0.29710
11.50765 0.29699
11.52886 0.29701
11.53554 0.29705
11.55675 0.29694
11.57796 0.29696
11.58462 0.29700
11.60584 0.29689
11.62706 0.29691
11.63371 0.29695
11.65493 0.29684
11.67615 0.29686
11.68280 0.29689
11.70402 0.29678
11.72525 0.29681
11.73189 0.29684
11.75311 0.29673
11.77434 0.29676
11.78097 0.29679
11.80220 0.29668
11.82343 0.29671
11.83006 0.29674
11.85129 0.29663
11.87253 0.29666
11.87915 0.29669
11.90038 0.29658
11.92162 0.29661
11.92823 0.29664
11.94947 0.29653
11.97072 0.29655
11.97732 0.29659
11.99856 0.29648
12.01981 0.29650
12.02641 0.29654
12.04765 0.29643
12.06891 0.29645
12.07550 0.29649
12.09675 0.29638
12.11801 0.29640
12.12458 0.29644
12.14583 0.29633
12.16709 0.29635
12.17367 0.29638
12.19493 0.29627
12.21619 0.29630
12.22277 0.29633
12.24403 0.29622
12.26529 0.29625
12.27185 0.29628
12.29311 0.29617
12.31439 0.29620
12.32094 0.29623
12.34220 0.29612
12.36348 0.29614
12.37002 0.29618
12.39130 0.29607
12.41257 0.29609
12.41911 0.29613
12.44038 0.29602
12.46167 0.29604
12.46819 0.29608
12.48947 0.29597
12.51076 0.29599
12.51729 0.29602
12.53857 0.29592
12.55986 0.29594
12.56637 0.29597
12.58766 0.29586
12.60895 0.29589
12.61546 0.29592
12.63675 0.29581
12.65805 0.29584
12.66455 0.29587
12.68585 0.29576
12.70715 0.29579
12.71364 0.29582
12.73493 0.29571
12.75624 0.29574
12.76272 0.29577
12.78402 0.29566
12.80533 0.29568
12.81181 0.29572
12.83312 0.29561
12.85443 0.29563
12.86090 0.29567
12.88220 0.29556
12.90352 0.29558
12.90999 0.29561
12.93130 0.29551
12.95262 0.29553
12.95907 0.29557
12.98038 0.29546
13.00170 0.29548
13.00816 0.29551
13.02948 0.29540
13.05081 0.29543
13.05725 0.29546
13.07857 0.29535
13.09990 0.29538
13.10633 0.29541
13.12766 0.29530
13.14899 0.29533
13.15542 0.29536
13.17675 0.29525
13.19809 0.29528
13.20450 0.29531
13.22584 0.29520
13.24718 0.29522
13.25359 0.29526
13.27493 0.29515
13.29628 0.29517
13.30268 0.29521
13.32402 0.29510
13.34537 0.29512
13.35177 0.29516
13.37311 0.29505
13.39447 0.29507
13.40086 0.29510
13.42221 0.29499
13.44356 0.29502
13.44994 0.29505
13.47130 0.29494
13.49266 0.29497
13.49903 0.29500
13.52039 0.29489
13.54175 0.29492
13.54812 0.29495
13.56948 0.29484
13.59085 0.29487
13.59720 0.29490
13.61856 0.29479
13.63993 0.29481
13.64629 0.29485
13.66766 0.29474
13.68903 0.29476
13.69538 0.29480
13.71676 0.29469
13.73813 0.29471
13.74446 0.29474
13.76584 0.29464
13.78722 0.29466
13.79356 0.29469
13.81494 0.29459
13.83632 0.29461
13.84264 0.29464
13.86402 0.29453
13.88541 0.29456
13.89173 0.29459
13.91312 0.29448
13.93451 0.29451
13.94082 0.29454
13.96221 0.29443
13.98360 0.29446
13.98990 0.29449
14.01130 0.29438
14.03270 0.29440
14.03899 0.29444
14.06039 0.29433
14.08179 0.29435
14.08808 0.29439
14.10948 0.29428
14.13089 0.29430
14.13717 0.29434
14.15857 0.29423
14.17998 0.29425
14.18625 0.29428
14.20766 0.29418
14.22908 0.29420
14.23535 0.29423
14.25676 0.29412
14.27818 0.29415
14.28443 0.29418
14.30584 0.29407
14.32727 0.29410
14.33352 0.29413
14.35494 0.29402
14.37637 0.29405
14.38260 0.29408
14.40402 0.29397
14.42545 0.29400
14.43169 0.29403
14.45312 0.29392
14.47455 0.29395
14.48078 0.29398
14.50221 0.29387
14.52365 0.29389
14.52986 0.29393
14.55130 0.29382
14.57274 0.29384
14.57895 0.29388
14.60039 0.29377
14.62183 0.29379
14.62805 0.29382
14.64949 0.29371
14.67094 0.29374
14.67713 0.29377
14.69857 0.29366
14.72003 0.29369
14.72622 0.29372
14.74767 0.29361
14.76912 0.29364
14.77530 0.29367
14.79675 0.29356
14.81821 0.29359
14.82439 0.29362
14.84585 0.29351
14.86731 0.29354
14.87348 0.29357
14.89494 0.29346
14.91641 0.29348
14.92257 0.29352
14.94403 0.29341
14.96550 0.29343
14.97165 0.29347
14.99312 0.29336
15.01460 0.29338
15.02074 0.29341
15.04221 0.29331
15.06369 0.29333
15.06983 0.29336
15.09131 0.29325
15.11279 0.29328
15.11891 0.29331
15.14039 0.29320
15.16188 0.29323
15.16800 0.29326
15.18949 0.29315
15.21098 0.29318
15.21709 0.29321
15.23857 0.29310
15.26007 0.29313
15.26618 0.29316
15.28767 0.29305
15.30917 0.29308
15.31526 0.29311
15.33676 0.29300
15.35826 0.29302
15.36435 0.29306
15.38585 0.29295
15.40736 0.29297
15.41343 0.29300
15.43494 0.29290
15.45644 0.29292
15.46253 0.29295
15.48404 0.29284
15.50555 0.29287
15.51162 0.29290
15.53313 0.29279
15.55464 0.29282
15.56071 0.29285
15.58222 0.29274
15.60374 0.29277
15.60979 0.29280
15.63131 0.29269
15.65283 0.29272
15.65888 0.29275
15.68040 0.29264
15.70193 0.29267
15.70796 0.29270
15.72949 0.29259
15.75102 0.29262
15.75706 0.29265
15.77858 0.29254
15.80012 0.29256
15.80614 0.29260
15.82768 0.29249
15.84921 0.29251
15.85523 0.29254
15.87676 0.29244
15.89830 0.29246
15.90431 0.29249
15.92585 0.29238
15.94740 0.29241
15.95340 0.29244
15.97495 0.29233
15.99650 0.29236
16.00249 0.29239
16.02403 0.29228
16.04559 0.29231
16.05157 0.29234
16.07312 0.29223
16.09468 0.29226
16.10066 0.29229
16.12221 0.29218
16.14378 0.29220
16.14975 0.29224
16.17131 0.29213
16.19288 0.29216
16.19884 0.29219
16.22040 0.29208
16.24197 0.29210
16.24793 0.29214
16.26949 0.29203
16.29107 0.29205
16.29701 0.29208
16.31858 0.29197
16.34016 0.29200
16.34611 0.29203
16.36768 0.29192
16.38926 0.29195
16.39518 0.29198
16.41676 0.29187
16.43835 0.29190
16.44427 0.29193
16.46586 0.29182
16.48744 0.29185
16.49336 0.29188
16.51495 0.29177
16.53654 0.29180
16.54244 0.29183
16.56403 0.29172
16.58563 0.29174
16.59154 0.29178
16.61313 0.29167
16.63473 0.29169
16.64063 0.29172
16.66222 0.29162
16.68383 0.29164
16.68971 0.29167
16.71131 0.29156
16.73292 0.29159
16.73880 0.29162
16.76040 0.29151
16.78201 0.29154
16.78788 0.29157
16.80949 0.29146
16.83111 0.29149
16.83697 0.29152
16.85858 0.29141
16.88020 0.29144
16.88606 0.29147
16.90767 0.29136
16.92930 0.29139
16.93515 0.29142
16.95677 0.29131
16.97839 0.29134
16.98423 0.29137
17.00586 0.29126
17.02749 0.29129
17.03332 0.29132
17.05495 0.29121
17.07659 0.29123
17.08241 0.29126
17.10404 0.29115
17.12568 0.29118
17.13150 0.29121
17.15313 0.29110
17.17477 0.29113
17.18058 0.29116
17.20222 0.29105
17.22387 0.29108
17.22967 0.29111
17.25131 0.29100
17.27296 0.29103
17.27876 0.29106
17.30041 0.29095
17.32206 0.29098
17.32785 0.29101
17.34950 0.29090
17.37115 0.29093
17.37694 0.29096
17.39859 0.29085
17.42025 0.29088
17.42602 0.29091
17.44768 0.29080
17.46935 0.29083
17.47511 0.29086
17.49677 0.29075
17.51844 0.29077
17.52420 0.29080
17.54587 0.29070
17.56754 0.29072
17.57328 0.29075
17.59495 0.29064
17.61663 0.29067
17.62237 0.29070
17.64404 0.29059
17.66572 0.29062
17.67146 0.29065
17.69314 0.29054
17.71482 0.29057
17.72055 0.29060
17.74223 0.29049
17.76392 0.29052
17.76963 0.29055
17.79131 0.29044
17.81301 0.29047
17.81872 0.29050
17.84041 0.29039
17.86210 0.29042
17.86780 0.29045
17.88949 0.29034
17.91119 0.29037
17.91690 0.29040
17.93859 0.29029
17.96029 0.29031
17.96599 0.29034
17.98769 0.29023
18.00939 0.29026
18.01507 0.29029
18.03677 0.29018
18.05848 0.29021
18.06416 0.29024
18.08587 0.29013
18.10758 0.29016
18.11324 0.29019
18.13495 0.29008
18.15667 0.29011
18.16234 0.29014
18.18405 0.29003
18.20577 0.29006
18.21141 0.29009
18.23313 0.28998
18.25486 0.29001
18.26051 0.29004
18.28223 0.28993
18.30396 0.28996
18.30959 0.28998
18.33132 0.28988
18.35305 0.28990
18.35868 0.28993
18.38041 0.28983
18.40214 0.28985
18.40777 0.28988
18.42951 0.28977
18.45125 0.28980
18.45685 0.28983
18.47859 0.28972
18.50034 0.28975
18.50594 0.28978
18.52768 0.28967
18.54943 0.28970
18.55503 0.28973
18.57677 0.28962
18.59853 0.28965
18.60412 0.28968
18.62587 0.28957
18.64762 0.28960
18.65320 0.28963
18.67495 0.28952
18.69671 0.28955
18.70229 0.28958
18.72405 0.28947
18.74581 0.28950
18.75138 0.28952
18.77314 0.28942
18.79491 0.28945
18.80047 0.28947
18.82224 0.28937
18.84401 0.28939
18.84956 0.28942
18.87132 0.28931
18.89310 0.28934
18.89865 0.28937
18.92042 0.28926
18.94220 0.28929
18.94773 0.28932
18.96951 0.28921
18.99129 0.28924
18.99681 0.28927
19.01859 0.28916
19.04038 0.28919
19.04590 0.28922
19.06769 0.28911
19.08948 0.28914
19.09499 0.28917
19.11678 0.28906
19.13857 0.28908
19.14408 0.28911
19.16587 0.28901
19.18767 0.28903
19.19317 0.28906
19.21496 0.28895
19.23676 0.28898
19.24225 0.28901
19.26405 0.28890
19.28586 0.28893
19.29134 0.28896
19.31315 0.28885
19.33495 0.28888
19.34042 0.28891
19.36223 0.28880
19.38405 0.28883
19.38952 0.28886
19.41133 0.28875
19.43315 0.28878
19.43860 0.28881
19.46042 0.28870
19.48224 0.28873
19.48769 0.28876
19.50951 0.28865
19.53134 0.28868
19.53678 0.28871
19.55861 0.28860
19.58044 0.28863
19.58587 0.28865
19.60769 0.28855
19.62952 0.28857
19.63495 0.28860
19.65678 0.28849
19.67862 0.28852
19.68404 0.28855
19.70588 0.28844
19.72772 0.28847
19.73313 0.28850
19.75497 0.28839
19.77682 0.28842
19.78222 0.28845
19.80406 0.28834
19.82591 0.28837
19.83130 0.28840
19.85315 0.28829
19.87500 0.28832
19.88039 0.28835
19.90224 0.28824
19.92410 0.28827
19.92948 0.28830
19.95134 0.28819
19.97320 0.28822
19.97857 0.28825
20.00042 0.28814
20.02229 0.28817
20.02765 0.28819
20.04951 0.28809
20.07138 0.28812
20.07674 0.28814
20.09860 0.28803
20.12047 0.28806
20.12582 0.28809
20.14769 0.28798
20.16957 0.28801
20.17492 0.28804
20.19679 0.28793
20.21867 0.28796
20.22400 0.28799
20.24588 0.28788
20.26776 0.28791
20.27309 0.28794
20.29498 0.28783
20.31686 0.28786
20.32218 0.28789
20.34406 0.28778
20.36595 0.28781
20.37126 0.28783
20.39315 0.28773
20.41504 0.28776
20.42035 0.28778
20.44224 0.28768
20.46414 0.28771
20.46944 0.28773
20.49134 0.28763
20.51324 0.28765
20.51853 0.28768
20.54043 0.28757
20.56234 0.28760
20.56761 0.28763
20.58952 0.28752
20.61143 0.28755
20.61670 0.28758
20.63861 0.28747
20.66053 0.28750
20.66579 0.28753
20.68770 0.28742
20.70962 0.28745
20.71487 0.28748
20.73679 0.28737
20.75871 0.28740
20.76397 0.28742
20.78589 0.28732
20.80781 0.28735
20.81305 0.28738
20.83497 0.28727
20.85690 0.28730
20.86214 0.28732
20.88407 0.28721
20.90600 0.28724
20.91122 0.28727
20.93316 0.28716
20.95509 0.28719
20.96032 0.28722
20.98225 0.28711
21.00419 0.28714
21.00940 0.28717
21.03134 0.28706
21.05329 0.28709
21.05849 0.28712
21.08043 0.28701
21.10238 0.28704
21.10758 0.28707
21.12953 0.28696
21.15148 0.28699
21.15666 0.28702
21.17861 0.28691
21.20057 0.28694
21.20575 0.28696
21.22771 0.28686
21.24967 0.28689
21.25484 0.28691
21.27680 0.28681
21.29877 0.28684
21.30392 0.28686
21.32588 0.28675
21.34785 0.28678
21.35301 0.28681
21.37498 0.28670
21.39695 0.28673
21.40210 0.28676
21.42407 0.28665
21.44605 0.28668
21.45119 0.28671
21.47316 0.28660
21.49514 0.28663
21.50028 0.28666
21.52226 0.28655
21.54424 0.28658
21.54936 0.28661
21.57134 0.28650
21.59333 0.28653
21.59845 0.28655
21.62043 0.28645
21.64242 0.28648
21.64754 0.28650
21.66953 0.28640
21.69153 0.28643
21.69662 0.28645
21.71862 0.28634
21.74062 0.28637
21.74571 0.28640
21.76771 0.28629
21.78971 0.28632
21.79480 0.28635
21.81680 0.28624
21.83881 0.28627
21.84389 0.28630
21.86589 0.28619
21.88791 0.28622
21.89297 0.28625
21.91498 0.28614
21.93700 0.28617
21.94206 0.28620
21.96408 0.28609
21.98610 0.28612
21.99115 0.28615
22.01317 0.28604
22.03519 0.28607
22.04024 0.28609
22.06226 0.28599
22.08429 0.28602
22.08933 0.28604
22.11135 0.28594
22.13338 0.28597
22.13841 0.28599
22.16044 0.28589
22.18248 0.28592
22.18749 0.28594
22.20953 0.28583
22.23157 0.28586
22.23659 0.28589
22.25863 0.28578
22.28067 0.28581
22.28567 0.28584
22.30771 0.28573
22.32976 0.28576
22.33476 0.28579
22.35681 0.28568
22.37886 0.28571
22.38385 0.28574
22.40590 0.28563
22.42795 0.28566
22.43294 0.28569
22.45499 0.28558
22.47705 0.28561
22.48202 0.28563
22.50408 0.28553
22.52615 0.28556
22.53111 0.28558
22.55317 0.28548
22.57524 0.28551
22.58020 0.28553
22.60226 0.28542
22.62433 0.28545
22.62928 0.28548
22.65135 0.28537
22.67342 0.28540
22.67838 0.28543
22.70045 0.28532
22.72253 0.28535
22.72746 0.28538
22.74954 0.28527
22.77163 0.28530
22.77655 0.28533
22.79863 0.28522
22.82072 0.28525
22.82563 0.28528
22.84772 0.28517
22.86981 0.28520
22.87472 0.28522
22.89681 0.28512
22.91890 0.28515
22.92381 0.28517
22.94590 0.28506
22.96800 0.28509
22.97290 0.28512
22.99499 0.28501
23.01710 0.28504
23.02198 0.28507
23.04408 0.28496
23.06619 0.28499
23.07107 0.28502
23.09318 0.28491
23.11529 0.28494
23.12016 0.28497
23.14227 0.28486
23.16439 0.28489
23.16924 0.28492
23.19136 0.28481
23.21348 0.28484
23.21833 0.28487
23.24045 0.28476
23.26257 0.28479
23.26742 0.28481
23.28954 0.28471
23.31167 0.28474
23.31650 0.28476
23.33863 0.28466
23.36076 0.28469
23.36560 0.28471
23.38773 0.28460
23.40986 0.28464
23.41468 0.28466
23.43681 0.28455
23.45895 0.28458
23.46377 0.28461
23.48591 0.28450
23.50805 0.28453
23.51285 0.28456
23.53499 0.28445
23.55714 0.28448
23.56194 0.28451
23.58409 0.28440
23.60624 0.28443
23.61103 0.28446
23.63318 0.28435
23.65534 0.28438
23.66012 0.28441
23.68228 0.28430
23.70443 0.28433
23.70921 0.28435
23.73137 0.28425
23.75353 0.28428
23.75830 0.28430
23.78046 0.28420
23.80262 0.28423
23.80738 0.28425
23.82955 0.28414
23.85172 0.28418
23.85647 0.28420
23.87863 0.28409
23.90081 0.28412
23.90556 0.28415
23.92773 0.28404
23.94991 0.28407
23.95464 0.28410
23.97682 0.28399
23.99900 0.28402
24.00373 0.28405
24.02591 0.28394
24.04810 0.28397
24.05282 0.28400
24.07500 0.28389
24.09719 0.28392
24.10191 0.28395
24.12409 0.28384
24.14629 0.28387
24.15100 0.28389
24.17319 0.28379
24.19539 0.28382
24.20008 0.28384
24.22228 0.28373
24.24448 0.28377
24.24917 0.28379
24.27137 0.28368
24.29358 0.28372
24.29826 0.28374
24.32047 0.28363
24.34268 0.28366
24.34734 0.28369
24.36955 0.28358
24.39177 0.28361
24.39643 0.28364
24.41864 0.28353
24.44086 0.28356
24.44552 0.28359
24.46773 0.28348
24.48995 0.28351
24.49460 0.28354
24.51682 0.28343
24.53905 0.28346
24.54369 0.28348
24.56591 0.28338
24.58814 0.28341
24.59278 0.28343
24.61501 0.28332
24.63724 0.28336
24.64187 0.28338
24.66410 0.28327
24.68634 0.28331
24.69095 0.28333
24.71319 0.28322
24.73543 0.28325
24.74004 0.28328
24.76228 0.28317
24.78453 0.28320
24.78913 0.28323
24.81138 0.28312
24.83363 0.28315
24.83822 0.28318
24.86047 0.28307
24.88272 0.28310
24.88731 0.28313
24.90956 0.28302
24.93182 0.28305
24.93639 0.28307
24.95865 0.28297
24.98091 0.28300
24.98547 0.28302
25.00773 0.28292
25.03000 0.28295
25.03457 0.28297
25.05683 0.28286
25.07910 0.28290
25.08365 0.28292
25.10592 0.28281
25.12820 0.28285
25.13274 0.28287
25.15501 0.28276
25.17729 0.28280
25.18182 0.28282
25.20410 0.28271
25.22638 0.28274
25.23092 0.28277
25.25320 0.28266
25.27549 0.28269
25.28000 0.28272
25.30229 0.28261
25.32458 0.28264
25.32909 0.28267
25.35137 0.28256
25.37367 0.28259
25.37818 0.28261
25.40047 0.28251
25.42277 0.28254
25.42726 0.28256
25.44956 0.28246
25.47186 0.28249
25.47635 0.28251
25.49865 0.28240
25.52096 0.28244
25.52544 0.28246
25.54774 0.28235
25.57006 0.28239
25.57453 0.28241
25.59684 0.28230
25.61915 0.28233
25.62362 0.28236
25.64593 0.28225
25.66825 0.28228
25.67271 0.28231
25.69502 0.28220
25.71735 0.28223
25.72179 0.28226
25.74411 0.28215
25.76644 0.28218
25.77088 0.28220
25.79321 0.28210
25.81554 0.28213
25.81997 0.28215
25.84230 0.28204
25.86463 0.28208
25.86905 0.28210
25.89138 0.28199
25.91372 0.28203
25.91814 0.28205
25.94048 0.28194
25.96282 0.28198
25.96723 0.28200
25.98957 0.28189
26.01192 0.28193
26.01631 0.28195
26.03866 0.28184
26.06101 0.28187
26.06540 0.28190
26.08775 0.28179
26.11011 0.28182
26.11449 0.28185
26.13684 0.28174
26.15920 0.28177
26.16357 0.28179
26.18593 0.28169
26.20830 0.28172
26.21266 0.28174
26.23502 0.28164
26.25739 0.28167
26.26175 0.28169
26.28411 0.28158
26.30648 0.28162
26.31084 0.28164
26.33321 0.28153
26.35558 0.28157
26.35992 0.28159
26.38230 0.28148
26.40468 0.28152
26.40901 0.28154
26.43139 0.28143
26.45378 0.28146
26.45810 0.28149
26.48048 0.28138
26.50287 0.28141
26.50719 0.28144
26.52958 0.28133
26.55197 0.28136
26.55628 0.28139
26.57867 0.28128
26.60107 0.28131
26.60536 0.28133
26.62776 0.28123
26.65016 0.28126
26.65445 0.28128
26.67684 0.28118
26.69925 0.28121
26.70354 0.28123
26.72594 0.28112
26.74835 0.28116
26.75263 0.28118
26.77503 0.28107
26.79745 0.28111
26.80171 0.28113
26.82413 0.28102
26.84654 0.28105
26.85080 0.28108
26.87322 0.28097
26.89564 0.28101
26.89989 0.28103
26.92231 0.28092
26.94473 0.28096
26.94898 0.28098
26.97140 0.28087
26.99383 0.28090
26.99806 0.28092
27.02049 0.28082
27.04292 0.28085
27.04715 0.28087
27.06958 0.28077
27.09202 0.28080
27.09623 0.28082
27.11867 0.28072
27.14111 0.28075
27.14533 0.28077
27.16777 0.28067
27.19021 0.28070
27.19441 0.28072
27.21686 0.28061
27.23931 0.28065
27.24350 0.28067
27.26594 0.28056
27.28840 0.28059
27.29259 0.28062
27.31504 0.28051
27.33750 0.28054
27.34167 0.28057
27.36413 0.28046
27.38659 0.28049
27.39075 0.28052
27.41321 0.28041
27.43568 0.28044
27.43984 0.28047
27.46231 0.28036
27.48478 0.28039
27.48894 0.28041
27.51140 0.28031
27.53388 0.28034
27.53802 0.28036
27.56049 0.28025
27.58297 0.28029
27.58711 0.28031
27.60959 0.28020
27.63207 0.28024
27.63620 0.28026
27.65868 0.28015
27.68116 0.28019
27.68528 0.28021
27.70777 0.28010
27.73026 0.28014
27.73437 0.28016
27.75686 0.28005
27.77935 0.28009
27.78346 0.28011
27.80595 0.28000
27.82845 0.28003
27.83255 0.28005
27.85505 0.27995
27.87755 0.27998
27.88163 0.28000
27.90413 0.27990
27.92664 0.27993
27.93072 0.27995
27.95323 0.27985
27.97574 0.27988
27.97981 0.27990
28.00232 0.27979
28.02483 0.27983
28.02889 0.27985
28.05141 0.27974
28.07393 0.27978
28.07798 0.27980
28.10050 0.27969
28.12302 0.27973
28.12707 0.27975
28.14959 0.27964
28.17212 0.27968
28.17616 0.27970
28.19869 0.27959
28.22122 0.27962
28.22525 0.27964
28.24778 0.27954
28.27031 0.27957
28.27433 0.27959
28.29687 0.27949
28.31941 0.27952
28.32342 0.27954
28.34595 0.27944
28.36850 0.27947
28.37251 0.27949
28.39505 0.27938
28.41760 0.27942
28.42160 0.27944
28.44415 0.27933
28.46670 0.27937
28.47069 0.27939
28.49324 0.27928
28.51580 0.27932
28.51977 0.27934
28.54232 0.27923
28.56488 0.27927
28.56885 0.27929
28.59141 0.27918
28.61398 0.27921
28.61795 0.27923
28.64051 0.27913
28.66308 0.27916
28.66703 0.27918
28.68960 0.27908
28.71217 0.27911
28.71612 0.27913
28.73869 0.27903
28.76127 0.27906
28.76521 0.27908
28.78779 0.27898
28.81037 0.27901
28.81429 0.27903
28.83687 0.27892
28.85946 0.27896
28.86338 0.27898
28.88597 0.27887
28.90856 0.27891
28.91247 0.27893
28.93505 0.27882
28.95765 0.27886
28.96155 0.27888
28.98414 0.27877
29.00674 0.27881
29.01065 0.27883
29.03324 0.27872
29.05585 0.27875
29.05973 0.27878
29.08233 0.27867
29.10494 0.27870
29.10882 0.27872
29.13142 0.27862
29.15403 0.27865
29.15791 0.27867
29.18052 0.27857
29.20313 0.27860
29.20700 0.27862
29.22961 0.27851
29.25223 0.27855
29.25608 0.27857
29.27870 0.27846
29.30132 0.27850
29.30517 0.27852
29.32779 0.27841
29.35042 0.27845
29.35425 0.27847
29.37688 0.27836
29.39951 0.27840
29.40334 0.27842
29.42597 0.27831
29.44861 0.27835
29.45243 0.27837
29.47506 0.27826
29.49770 0.27829
29.50152 0.27831
29.52416 0.27821
29.54681 0.27824
29.55061 0.27826
29.57325 0.27816
29.59590 0.27819
29.59970 0.27821
29.62234 0.27810
29.64499 0.27814
29.64879 0.27816
29.67144 0.27805
29.69409 0.27809
29.69786 0.27811
29.72052 0.27800
29.74318 0.27804
29.74696 0.27806
29.76962 0.27795
29.79228 0.27799
29.79604 0.27801
29.81870 0.27790
29.84137 0.27794
29.84513 0.27796
29.86780 0.27785
29.89047 0.27788
29.89422 0.27790
29.91689 0.27780
29.93957 0.27783
29.94331 0.27785
29.96598 0.27775
29.98866 0.27778
29.99239 0.27780
30.01507 0.27770
30.03775 0.27773
30.04148 0.27775
30.06416 0.27765
30.08685 0.27768
30.09057 0.27770
30.11326 0.27759
30.13595 0.27763
30.13965 0.27765
30.16234 0.27754
30.18504 0.27758
30.18874 0.27760
30.21144 0.27749
30.23414 0.27753
30.23783 0.27755
30.26053 0.27744
30.28323 0.27748
30.28692 0.27750
30.30962 0.27739
30.33233 0.27742
30.33600 0.27744
30.35871 0.27734
30.38143 0.27738
30.38509 0.27739
30.40781 0.27729
30.43053 0.27732
30.43418 0.27734
30.45689 0.27724
30.47962 0.27727
30.48327 0.27729
30.50599 0.27718
30.52872 0.27722
30.53235 0.27724
30.55508 0.27713
30.57781 0.27717
30.58144 0.27719
30.60417 0.27708
30.62691 0.27712
30.63053 0.27714
30.65326 0.27703
30.67600 0.27707
30.67962 0.27709
30.70235 0.27698
30.72510 0.27701
30.72870 0.27703
30.75145 0.27693
30.77419 0.27697
30.77779 0.27698
30.80053 0.27688
30.82329 0.27691
30.82688 0.27693
30.84963 0.27683
30.87239 0.27686
30.87596 0.27688
30.89872 0.27677
30.92148 0.27681
30.92505 0.27683
30.94780 0.27672
30.97057 0.27676
30.97414 0.27678
30.99690 0.27667
31.01967 0.27671
31.02323 0.27673
31.04599 0.27662
31.06877 0.27666
31.07232 0.27667
31.09509 0.27657
31.11787 0.27661
31.12140 0.27662
31.14418 0.27652
31.16696 0.27656
31.17049 0.27657
31.19327 0.27647
31.21606 0.27650
31.21958 0.27652
31.24236 0.27642
31.26515 0.27645
31.26867 0.27647
31.29146 0.27637
31.31425 0.27640
31.31775 0.27642
31.34055 0.27631
31.36335 0.27635
31.36684 0.27637
31.38964 0.27626
31.41244 0.27630
31.41593 0.27632
31.43873 0.27621
31.46154 0.27625
31.46501 0.27627
31.48781 0.27616
31.51063 0.27620
31.51410 0.27621
31.53691 0.27611
31.55973 0.27615
31.56319 0.27616
31.58600 0.27606
31.60882 0.27610
31.61228 0.27611
31.63510 0.27601
31.65792 0.27604
31.66136 0.27606
31.68418 0.27596
31.70701 0.27599
31.71044 0.27601
31.73327 0.27590
31.75610 0.27594
31.75954 0.27596
31.78237 0.27585
31.80521 0.27589
31.80862 0.27591
31.83146 0.27580
31.85430 0.27584
31.85772 0.27586
31.88056 0.27575
31.90340 0.27579
31.90680 0.27581
31.92964 0.27570
31.95249 0.27574
31.95588 0.27576
31.97873 0.27565
32.00159 0.27568
32.00497 0.27570
32.02783 0.27560
32.05069 0.27564
32.05406 0.27565
32.07692 0.27555
32.09978 0.27559
32.10315 0.27560
32.12601 0.27550
32.14888 0.27553
32.15223 0.27555
32.17510 0.27544
32.19797 0.27548
32.20132 0.27550
32.22419 0.27539
32.24707 0.27543
32.25041 0.27545
32.27329 0.27534
32.29617 0.27538
32.29950 0.27539
32.32238 0.27529
32.34526 0.27533
32.34858 0.27534
32.37146 0.27524
32.39435 0.27528
32.39767 0.27529
32.42056 0.27519
32.44345 0.27523
32.44676 0.27524
32.46965 0.27514
32.49254 0.27517
32.49585 0.27519
32.51875 0.27509
32.54165 0.27512
32.54494 0.27514
32.56784 0.27503
32.59074 0.27507
32.59402 0.27509
32.61692 0.27498
32.63983 0.27502
32.64311 0.27504
32.66602 0.27493
32.68893 0.27497
32.69220 0.27499
32.71511 0.27488
32.73803 0.27492
32.74128 0.27494
32.76420 0.27483
32.78712 0.27487
32.79037 0.27488
32.81329 0.27478
32.83621 0.27482
32.83946 0.27483
32.86239 0.27473
32.88532 0.27476
32.88855 0.27478
32.91148 0.27467
32.93441 0.27471
32.93764 0.27473
32.96057 0.27462
32.98351 0.27466
32.98672 0.27468
33.00966 0.27457
33.03260 0.27461
33.03581 0.27463
33.05875 0.27452
33.08170 0.27456
33.08490 0.27458
33.10784 0.27447
33.13080 0.27451
33.13399 0.27453
33.15694 0.27442
33.17989 0.27446
33.18307 0.27448
33.20602 0.27437
33.22898 0.27441
33.23216 0.27442
33.25512 0.27432
33.27808 0.27436
33.28125 0.27437
33.30422 0.27427
33.32718 0.27431
33.33033 0.27432
33.35329 0.27422
33.37627 0.27425
33.37942 0.27427
33.40239 0.27416
33.42537 0.27420
33.42850 0.27422
33.45148 0.27411
33.47446 0.27415
33.47760 0.27417
33.50058 0.27406
33.52356 0.27410
33.52668 0.27412
33.54967 0.27401
33.57266 0.27405
33.57577 0.27407
33.59876 0.27396
33.62175 0.27400
33.62486 0.27401
33.64785 0.27391
33.67085 0.27395
33.67395 0.27396
33.69694 0.27386
33.71995 0.27389
33.72303 0.27391
33.74604 0.27381
33.76904 0.27385
33.77212 0.27386
33.79513 0.27375
33.81814 0.27379
33.82121 0.27381
33.84422 0.27370
33.86724 0.27374
33.87029 0.27376
33.89330 0.27365
33.91632 0.27369
33.91939 0.27371
33.94240 0.27360
33.96543 0.27364
33.96847 0.27366
33.99150 0.27355
34.01452 0.27359
34.01756 0.27360
34.04059 0.27350
34.06362 0.27354
34.06665 0.27355
34.08968 0.27345
34.11272 0.27349
34.11573 0.27350
34.13877 0.27340
34.16181 0.27344
34.16482 0.27345
34.18786 0.27335
34.21090 0.27338
34.21391 0.27340
34.23695 0.27329
34.26000 0.27333
34.26300 0.27335
34.28605 0.27324
34.30910 0.27328
34.31208 0.27330
34.33514 0.27319
34.35820 0.27323
34.36117 0.27325
34.38423 0.27314
34.40729 0.27318
34.41025 0.27320
34.43332 0.27309
34.45638 0.27313
34.45935 0.27314
34.48241 0.27304
34.50549 0.27308
34.50843 0.27309
34.53150 0.27299
34.55458 0.27303
34.55752 0.27304
34.58059 0.27294
34.60368 0.27297
34.60660 0.27299
34.62968 0.27288
34.65277 0.27292
34.65569 0.27294
34.67878 0.27283
34.70187 0.27287
34.70478 0.27289
34.72786 0.27278
34.75096 0.27282
34.75387 0.27284
34.77696 0.27273
34.80006 0.27277
34.80296 0.27278
34.82606 0.27268
34.84916 0.27272
34.85205 0.27273
34.87515 0.27263
34.89826 0.27267
34.90113 0.27268
34.92423 0.27258
34.94734 0.27262
34.95021 0.27263
34.97332 0.27253
34.99644 0.27257
34.99930 0.27258
35.02242 0.27248
35.04554 0.27252
35.04839 0.27253
35.07151 0.27243
35.09463 0.27247
35.09748 0.27248
35.12061 0.27237
35.14373 0.27241
35.14656 0.27243
35.16969 0.27232
35.19282 0.27236
35.19565 0.27237
35.21879 0.27227
35.24192 0.27231
35.24474 0.27233
35.26788 0.27222
35.29102 0.27226
35.29383 0.27227
35.31697 0.27217
35.34012 0.27221
35.34292 0.27222
35.36606 0.27212
35.38921 0.27216
35.39201 0.27217
35.41516 0.27207
35.43831 0.27211
35.44109 0.27212
35.46424 0.27201
35.48740 0.27205
35.49018 0.27207
35.51334 0.27196
35.53650 0.27200
35.53927 0.27202
35.56243 0.27191
35.58560 0.27195
35.58835 0.27197
35.61152 0.27186
35.63469 0.27190
35.63745 0.27192
35.66062 0.27181
35.68379 0.27185
35.68653 0.27187
35.70970 0.27176
35.73288 0.27180
35.73562 0.27182
35.75880 0.27171
35.78198 0.27175
35.78470 0.27176
35.80789 0.27166
35.83108 0.27170
35.83379 0.27171
35.85698 0.27161
35.88017 0.27165
35.88288 0.27166
35.90607 0.27155
35.92927 0.27159
35.93196 0.27161
35.95516 0.27150
35.97836 0.27154
35.98106 0.27156
36.00426 0.27145
36.02747 0.27149
36.03014 0.27150
36.05335 0.27140
36.07656 0.27144
36.07923 0.27145
36.10244 0.27135
36.12566 0.27139
36.12832 0.27140
36.15153 0.27130
36.17475 0.27134
36.17740 0.27135
36.20062 0.27125
36.22385 0.27129
36.22649 0.27130
36.24971 0.27120
36.27294 0.27124
36.27558 0.27125
36.29880 0.27114
36.32204 0.27119
36.32466 0.27120
36.34789 0.27109
36.37113 0.27113
36.37375 0.27115
36.39698 0.27104
36.42023 0.27108
36.42284 0.27110
36.44608 0.27099
36.46933 0.27103
36.47193 0.27104
36.49517 0.27094
36.51842 0.27098
36.52101 0.27099
36.54426 0.27089
36.56752 0.27093
36.57010 0.27095
36.59336 0.27084
36.61662 0.27088
36.61919 0.27089
36.64245 0.27079
36.66571 0.27083
36.66827 0.27084
36.69153 0.27074
36.71480 0.27078
36.71737 0.27079
36.74064 0.27068
36.76391 0.27073
36.76645 0.27074
36.78972 0.27063
36.81300 0.27067
36.81554 0.27069
36.83881 0.27058
36.86209 0.27062
36.86463 0.27064
36.88791 0.27053
36.91119 0.27057
36.91371 0.27058
36.93700 0.27048
36.96029 0.27052
36.96280 0.27053
36.98609 0.27043
37.00939 0.27047
37.01188 0.27048
37.03518 0.27038
37.05848 0.27042
37.06097 0.27043
37.08427 0.27033
37.10757 0.27037
37.11007 0.27038
37.13337 0.27027
37.15668 0.27032
37.15915 0.27033
37.18245 0.27022
37.20576 0.27026
37.20824 0.27028
37.23155 0.27017
37.25487 0.27021
37.25733 0.27023
37.28065 0.27012
37.30397 0.27016
37.30641 0.27018
37.32973 0.27007
37.35305 0.27011
37.35550 0.27012
37.37882 0.27002
37.40215 0.27006
37.40459 0.27007
37.42792 0.26997
37.45125 0.27001
37.45367 0.27002
37.47700 0.26992
37.50034 0.26996
37.50276 0.26997
37.52610 0.26986
37.54945 0.26991
37.55185 0.26992
37.57519 0.26981
37.59854 0.26986
37.60094 0.26987
37.62429 0.26976
37.64764 0.26980
37.65002 0.26982
37.67337 0.26971
37.69673 0.26975
37.69911 0.26977
37.72247 0.26966
37.74583 0.26970
37.74819 0.26972
37.77155 0.26961
37.79492 0.26965
37.79729 0.26966
37.82065 0.26956
37.84402 0.26960
37.84638 0.26961
37.86974 0.26951
37.89312 0.26955
37.89546 0.26956
37.91884 0.26946
37.94221 0.26950
37.94455 0.26951
37.96792 0.26941
37.99131 0.26945
37.99364 0.26946
38.01702 0.26935
38.04041 0.26940
38.04272 0.26941
38.06611 0.26930
38.08950 0.26934
38.09181 0.26936
38.11520 0.26925
38.13860 0.26929
38.14090 0.26930
38.16429 0.26920
38.18769 0.26924
38.18999 0.26925
38.21339 0.26915
38.23680 0.26919
38.23907 0.26920
38.26248 0.26910
38.28589 0.26914
38.28816 0.26915
38.31157 0.26905
38.33499 0.26909
38.33725 0.26910
38.36066 0.26900
38.38408 0.26904
38.38633 0.26905
38.40975 0.26894
38.43317 0.26899
38.43543 0.26900
38.45885 0.26889
38.48228 0.26894
38.48451 0.26895
38.50794 0.26884
38.53137 0.26888
38.53359 0.26890
38.55702 0.26879
38.58046 0.26883
38.58269 0.26885
38.60612 0.26874
38.62956 0.26878
38.63177 0.26879
38.65521 0.26869
38.67866 0.26873
38.68087 0.26874
38.70431 0.26864
38.72776 0.26868
38.72995 0.26869
38.75340 0.26858
38.77685 0.26863
38.77903 0.26864
38.80248 0.26853
38.82594 0.26858
38.82812 0.26859
38.85158 0.26848
38.87504 0.26853
38.87721 0.26854
38.90067 0.26843
38.92414 0.26847
38.92630 0.26848
38.94977 0.26838
38.97324 0.26842
38.97539 0.26843
38.99886 0.26833
39.02234 0.26837
39.02447 0.26838
39.04795 0.26828
39.07143 0.26832
39.07356 0.26833
39.09704 0.26823
39.12052 0.26827
39.12264 0.26828
39.14613 0.26818
39.16962 0.26822
39.17174 0.26823
39.19523 0.26812
39.21872 0.26817
39.22083 0.26818
39.24432 0.26807
39.26782 0.26812
39.26991 0.26813
39.29341 0.26802
39.31691 0.26807
39.31900 0.26808
39.34250 0.26797
39.36601 0.26802
39.36808 0.26803
39.39159 0.26792
39.41510 0.26796
39.41718 0.26797
39.44069 0.26787
39.46421 0.26791
39.46625 0.26792
39.48977 0.26782
39.51329 0.26786
39.51535 0.26787
39.53887 0.26777
39.56240 0.26781
39.56444 0.26782
39.58796 0.26772
39.61149 0.26776
39.61352 0.26777
39.63705 0.26767
39.66059 0.26771
39.66260 0.26772
39.68614 0.26761
39.70968 0.26766
39.71170 0.26767
39.73524 0.26756
39.75878 0.26761
39.76078 0.26762
39.78433 0.26751
39.80788 0.26756
39.80987 0.26757
39.83342 0.26746
39.85697 0.26750
39.85896 0.26752
39.88251 0.26741
39.90607 0.26745
39.90805 0.26746
39.93160 0.26736
39.95516 0.26740
39.95713 0.26741
39.98069 0.26731
40.00426 0.26735
40.00622 0.26736
40.02978 0.26725
40.05335 0.26730
40.05531 0.26731
40.07888 0.26720
40.10245 0.26725
40.10439 0.26726
40.12796 0.26715
40.15154 0.26720
40.15348 0.26721
40.17706 0.26710
40.20065 0.26715
40.20257 0.26716
40.22615 0.26705
40.24974 0.26709
40.25165 0.26710
40.27524 0.26700
40.29883 0.26704
40.30074 0.26705
40.32433 0.26695
40.34793 0.26699
40.34983 0.26700
40.37343 0.26690
40.39703 0.26694
40.39892 0.26695
40.42252 0.26685
40.44613 0.26689
40.44800 0.26690
40.47161 0.26679
40.49522 0.26684
40.49710 0.26685
40.52071 0.26674
40.54432 0.26679
40.54618 0.26680
40.56980 0.26669
40.59342 0.26673
40.59526 0.26674
40.61888 0.26664
40.64251 0.26668
40.64436 0.26669
40.66798 0.26659
40.69161 0.26664
40.69344 0.26665
40.71707 0.26654
40.74070 0.26658
40.74253 0.26659
40.76617 0.26649
40.78981 0.26653
40.79162 0.26654
40.81525 0.26644
40.83890 0.26648
40.84070 0.26649
40.86435 0.26639
40.88800 0.26643
40.88979 0.26644
40.91344 0.26633
40.93709 0.26638
40.93888 0.26639
40.96253 0.26628
40.98619 0.26633
40.98796 0.26634
41.01162 0.26623
41.03528 0.26628
41.03705 0.26629
41.06071 0.26618
41.08438 0.26623
41.08614 0.26623
41.10980 0.26613
41.13347 0.26617
41.13523 0.26618
41.15890 0.26608
41.18258 0.26612
41.18432 0.26613
41.20799 0.26603
41.23167 0.26607
41.23340 0.26608
41.25708 0.26598
41.28076 0.26602
41.28250 0.26603
41.30618 0.26592
41.32987 0.26597
41.33158 0.26598
41.35527 0.26587
41.37897 0.26592
41.38066 0.26593
41.40435 0.26582
41.42805 0.26587
41.42976 0.26588
41.45345 0.26577
41.47716 0.26582
41.47884 0.26582
41.50254 0.26572
41.52624 0.26576
41.52792 0.26577
41.55163 0.26567
41.57534 0.26571
41.57701 0.26572
41.60072 0.26562
41.62444 0.26566
41.62610 0.26567
41.64982 0.26557
41.67354 0.26561
41.67520 0.26562
41.69892 0.26552
41.72264 0.26556
41.72428 0.26557
41.74801 0.26546
41.77174 0.26551
41.77336 0.26552
41.79709 0.26541
41.82083 0.26546
41.82245 0.26547
41.84618 0.26536
41.86992 0.26541
41.87154 0.26542
41.89527 0.26531
41.91902 0.26536
41.92062 0.26536
41.94436 0.26526
41.96811 0.26530
41.96972 0.26531
41.99347 0.26521
42.01722 0.26525
42.01880 0.26526
42.04255 0.26516
42.06631 0.26520
42.06789 0.26521
42.09165 0.26511
42.11541 0.26515
42.11698 0.26516
42.14074 0.26505
42.16451 0.26510
42.16606 0.26511
42.18982 0.26500
42.21360 0.26505
42.21515 0.26506
42.23892 0.26495
42.26270 0.26500
42.26424 0.26500
42.28802 0.26490
42.31180 0.26494
42.31333 0.26495
42.33711 0.26485
42.36090 0.26490
42.36242 0.26490
42.38620 0.26480
42.40999 0.26484
42.41150 0.26485
42.43529 0.26475
42.45908 0.26479
42.46059 0.26480
42.48438 0.26470
42.50818 0.26474
42.50967 0.26475
42.53347 0.26465
42.55728 0.26469
42.55876 0.26470
42.58257 0.26460
42.60637 0.26464
42.60786 0.26465
42.63166 0.26454
42.65548 0.26459
42.65694 0.26459
42.68075 0.26449
42.70457 0.26454
42.70603 0.26454
42.72984 0.26444
42.75367 0.26449
42.75511 0.26449
42.77893 0.26439
42.80276 0.26444
42.80420 0.26444
42.82802 0.26434
42.85185 0.26438
42.85329 0.26439
42.87712 0.26429
42.90095 0.26433
42.90237 0.26434
42.92620 0.26424
42.95004 0.26428
42.95146 0.26429
42.97530 0.26419
42.99914 0.26423
43.00055 0.26424
43.02439 0.26413
43.04824 0.26418
43.04964 0.26419
43.07349 0.26408
43.09734 0.26413
43.09872 0.26413
43.12257 0.26403
43.14643 0.26408
43.14781 0.26409
43.17167 0.26398
43.19553 0.26403
43.19690 0.26403
43.22076 0.26393
43.24463 0.26397
43.24598 0.26398
43.26985 0.26388
43.29372 0.26392
43.29508 0.26393
43.31895 0.26383
43.34283 0.26387
43.34417 0.26388
43.36804 0.26378
43.39193 0.26382
43.39325 0.26383
43.41713 0.26372
43.44102 0.26377
43.44234 0.26378
43.46622 0.26367
43.49012 0.26372
43.49142 0.26373
43.51531 0.26362
43.53921 0.26367
43.54051 0.26368
43.56441 0.26357
43.58831 0.26362
43.58959 0.26362
43.61349 0.26352
43.63740 0.26357
43.63869 0.26357
43.66259 0.26347
43.68650 0.26351
43.68778 0.26352
43.71169 0.26342
43.73560 0.26346
43.73686 0.26347
43.76078 0.26337
43.78470 0.26341
43.78595 0.26342
43.80987 0.26331
43.83379 0.26336
43.83503 0.26337
43.85896 0.26326
43.88289 0.26331
43.88413 0.26332
43.90806 0.26321
43.93199 0.26326
43.93321 0.26327
43.95714 0.26316
43.98108 0.26321
43.98230 0.26321
44.00623 0.26311
44.03018 0.26316
44.03138 0.26316
44.05532 0.26306
44.07927 0.26310
44.08047 0.26311
44.10442 0.26301
44.12837 0.26305
44.12956 0.26306
44.15352 0.26296
44.17747 0.26300
44.17865 0.26301
44.20260 0.26291
44.22656 0.26295
44.22774 0.26296
44.25170 0.26285
44.27566 0.26290
44.27682 0.26291
44.30079 0.26280
44.32476 0.26285
44.32591 0.26285
44.34988 0.26275
44.37385 0.26280
44.37499 0.26280
44.39897 0.26270
44.42295 0.26275
44.42408 0.26275
44.44806 0.26265
44.47205 0.26270
44.47317 0.26270
44.49715 0.26260
44.52114 0.26264
44.52227 0.26265
44.54625 0.26255
44.57025 0.26259
44.57135 0.26260
44.59534 0.26249
44.61934 0.26254
44.62044 0.26255
44.64444 0.26244
44.66844 0.26249
44.66952 0.26250
44.69353 0.26239
44.71753 0.26244
44.71861 0.26245
44.74262 0.26234
44.76663 0.26239
44.76770 0.26240
44.79171 0.26229
44.81572 0.26234
44.81678 0.26234
44.84080 0.26224
44.86482 0.26229
44.86588 0.26229
44.88990 0.26219
44.91392 0.26224
44.91495 0.26224
44.93898 0.26214
44.96301 0.26218
44.96404 0.26219
44.98807 0.26209
45.01211 0.26213
45.01313 0.26214
45.03717 0.26203
45.06121 0.26208
45.06222 0.26209
45.08626 0.26198
45.11031 0.26203
45.11130 0.26204
45.13535 0.26193
45.15940 0.26198
45.16039 0.26199
45.18444 0.26188
45.20850 0.26193
45.20948 0.26193
45.23353 0.26183
45.25759 0.26188
45.25857 0.26188
45.28262 0.26178
45.30669 0.26183
45.30765 0.26183
45.33172 0.26173
45.35579 0.26178
45.35674 0.26178
45.38081 0.26168
45.40488 0.26172
45.40583 0.26173
45.42990 0.26162
45.45398 0.26167
45.45491 0.26168
45.47899 0.26157
45.50307 0.26162
45.50401 0.26163
45.52809 0.26152
45.55218 0.26157
45.55309 0.26158
45.57718 0.26147
45.60127 0.26152
45.60218 0.26153
45.62627 0.26142
45.65037 0.26147
45.65127 0.26147
45.67536 0.26137
45.69946 0.26142
45.70035 0.26142
45.72445 0.26132
45.74856 0.26137
45.74945 0.26137
45.77355 0.26127
45.79766 0.26132
45.79853 0.26132
45.82264 0.26122
45.84675 0.26126
45.84762 0.26127
45.87173 0.26117
45.89585 0.26121
45.89670 0.26122
45.92082 0.26111
45.94495 0.26116
45.94579 0.26117
45.96991 0.26106
45.99404 0.26111
45.99488 0.26112
46.01901 0.26101
46.04315 0.26106
46.04397 0.26106
46.06810 0.26096
46.09224 0.26101
46.09306 0.26101
46.11719 0.26091
46.14134 0.26096
46.14214 0.26096
46.16628 0.26086
46.19043 0.26091
46.19123 0.26091
46.21538 0.26081
46.23953 0.26086
46.24032 0.26086
46.26447 0.26076
46.28863 0.26081
46.28941 0.26081
46.31357 0.26070
46.33773 0.26075
46.33849 0.26076
46.36265 0.26065
46.38682 0.26070
46.38758 0.26071
46.41174 0.26060
46.43592 0.26065
46.43667 0.26065
46.46085 0.26055
46.48502 0.26060
46.48575 0.26060
46.50993 0.26050
46.53411 0.26055
46.53484 0.26055
46.55902 0.26045
46.58321 0.26050
46.58392 0.26050
46.60811 0.26040
46.63230 0.26044
46.63302 0.26045
46.65721 0.26034
46.68140 0.26039
46.68211 0.26040
46.70630 0.26029
46.73050 0.26035
46.73119 0.26035
46.75539 0.26024
46.77960 0.26029
46.78028 0.26029
46.80449 0.26019
46.82870 0.26024
46.82936 0.26025
46.85357 0.26014
46.87779 0.26019
46.87846 0.26019
46.90267 0.26009
46.92689 0.26014
46.92753 0.26014
46.95175 0.26004
46.97598 0.26009
46.97663 0.26009
47.00086 0.25999
47.02509 0.26004
47.02571 0.26004
47.04994 0.25994
47.07417 0.25999
47.07480 0.25999
47.09903 0.25989
47.12327 0.25993
47.12389 0.25994
47.14813 0.25983
47.17237 0.25988
47.17297 0.25989
47.19722 0.25978
47.22147 0.25983
47.22206 0.25983
47.24631 0.25973
47.27056 0.25978
47.27115 0.25979
47.29540 0.25968
47.31966 0.25973
47.32024 0.25973
47.34449 0.25963
47.36876 0.25968
47.36933 0.25968
47.39359 0.25958
47.41786 0.25963
47.41842 0.25963
47.44268 0.25953
47.46696 0.25958
47.46750 0.25958
47.49178 0.25948
47.51605 0.25952
47.51659 0.25953
47.54086 0.25942
47.56515 0.25947
47.56567 0.25948
47.58995 0.25937
47.61424 0.25942
47.61476 0.25943
47.63905 0.25932
47.66334 0.25937
47.66386 0.25937
47.68815 0.25927
47.71244 0.25932
47.71293 0.25932
47.73723 0.25922
47.76153 0.25927
47.76202 0.25927
47.78632 0.25917
47.81063 0.25922
47.81111 0.25922
47.83542 0.25912
47.85973 0.25917
47.86019 0.25917
47.88451 0.25907
47.90882 0.25912
47.90929 0.25912
47.93360 0.25902
47.95792 0.25907
47.95837 0.25907
47.98269 0.25897
48.00702 0.25902
48.00746 0.25902
48.03179 0.25891
48.05612 0.25896
48.05655 0.25897
48.08088 0.25886
48.10522 0.25891
48.10564 0.25892
48.12998 0.25881
48.15431 0.25886
48.15473 0.25886
48.17907 0.25876
48.20341 0.25881
48.20381 0.25881
48.22816 0.25871
48.25251 0.25876
48.25290 0.25876
48.27725 0.25866
48.30160 0.25871
48.30198 0.25871
48.32634 0.25861
48.35070 0.25866
48.35108 0.25866
48.37544 0.25855
48.39980 0.25860
48.40016 0.25861
48.42452 0.25850
48.44889 0.25855
48.44925 0.25855
48.47362 0.25845
48.49799 0.25850
48.49834 0.25850
48.52271 0.25840
48.54709 0.25845
48.54743 0.25845
48.57180 0.25835
48.59619 0.25840
48.59651 0.25840
48.62089 0.25830
48.64528 0.25835
48.64560 0.25835
48.66999 0.25825
48.69438 0.25830
48.69469 0.25830
48.71908 0.25820
48.74348 0.25825
48.74378 0.25825
48.76817 0.25815
48.79258 0.25820
48.79286 0.25820
48.81726 0.25809
48.84167 0.25814
48.84195 0.25815
48.86636 0.25804
48.89077 0.25810
48.89104 0.25810
48.91545 0.25799
48.93987 0.25804
48.94013 0.25805
48.96454 0.25794
48.98896 0.25799
48.98921 0.25799
49.01363 0.25789
49.03806 0.25794
49.03830 0.25794
49.06273 0.25784
49.08716 0.25789
49.08738 0.25789
49.11181 0.25779
49.13625 0.25784
49.13647 0.25784
49.16091 0.25774
49.18535 0.25779
49.18556 0.25779
49.21000 0.25768
49.23445 0.25774
49.23465 0.25774
49.25910 0.25763
49.28355 0.25768
49.28373 0.25768
49.30818 0.25758
49.33264 0.25763
49.33283 0.25763
49.35728 0.25753
49.38175 0.25758
49.38191 0.25758
49.40637 0.25748
49.43084 0.25753
49.43100 0.25753
49.45546 0.25743
49.47993 0.25748
49.48008 0.25748
49.50455 0.25738
49.52903 0.25743
49.52917 0.25743
49.55365 0.25733
49.57813 0.25738
49.57826 0.25738
49.60274 0.25728
49.62722 0.25733
49.62735 0.25733
49.65184 0.25722
49.67632 0.25727
49.67643 0.25728
49.70092 0.25717
49.72542 0.25722
49.72552 0.25722
49.75002 0.25712
49.77451 0.25717
49.77461 0.25717
49.79911 0.25707
49.82361 0.25712
49.82369 0.25712
49.84820 0.25702
49.87270 0.25707
49.87278 0.25707
49.89729 0.25697
49.92180 0.25702
49.92187 0.25702
49.94639 0.25692
49.97090 0.25697
49.97096 0.25697
49.99547 0.25687
50.02000 0.25692
50.02004 0.25692
50.04457 0.25682
50.06910 0.25687
50.06913 0.25687
50.09366 0.25676
50.11819 0.25681
50.11822 0.25681
50.14275 0.25671
50.16729 0.25676
50.16730 0.25676
50.19184 0.25666
50.21638 0.25671
50.21639 0.25671
50.24094 0.25661
50.26548 0.25666
50.29003 0.25656
50.31457 0.25661
50.33912 0.25651
50.36365 0.25656
50.38821 0.25646
50.41274 0.25651
50.43730 0.25641
50.46183 0.25646
50.48640 0.25635
50.51092 0.25640
50.53549 0.25630
50.56001 0.25635
50.58458 0.25625
50.60909 0.25630
50.63367 0.25620
50.65818 0.25625
50.68276 0.25615
50.70727 0.25620
50.73186 0.25610
50.75636 0.25615
50.78095 0.25605
50.80544 0.25610
50.83005 0.25600
50.85454 0.25605
50.87914 0.25595
50.90362 0.25600
50.92823 0.25589
50.95271 0.25595
50.97732 0.25584
51.00179 0.25589
51.02642 0.25579
51.05088 0.25584
51.07551 0.25574
51.09997 0.25579
51.12460 0.25569
51.14906 0.25574
51.17369 0.25564
51.19814 0.25569
51.22278 0.25559
51.24723 0.25564
51.27188 0.25554
51.29631 0.25559
51.32097 0.25549
51.34541 0.25554
51.37006 0.25543
51.39450 0.25548
51.41916 0.25538
51.44358 0.25543
51.46824 0.25533
51.49267 0.25538
51.51734 0.25528
51.54175 0.25533
51.56643 0.25523
51.59085 0.25528
51.61553 0.25518
51.63993 0.25523
51.66462 0.25513
51.68902 0.25518
51.71371 0.25507
51.73810 0.25512
51.76280 0.25502
51.78720 0.25508
51.81190 0.25497
51.83628 0.25502
51.86098 0.25492
51.88537 0.25497
51.91008 0.25487
51.93445 0.25492
51.95917 0.25482
51.98354 0.25487
52.00826 0.25477
52.03263 0.25482
52.05736 0.25472
52.08172 0.25477
52.10645 0.25467
52.13080 0.25472
52.15554 0.25461
52.17989 0.25466
52.20463 0.25456
52.22898 0.25461
52.25372 0.25451
52.27806 0.25456
52.30281 0.25446
52.32716 0.25451
52.35191 0.25441
52.37624 0.25446
52.40100 0.25436
52.42533 0.25441
52.45009 0.25431
52.47442 0.25436
52.49919 0.25426
52.52350 0.25431
52.54828 0.25421
52.57259 0.25426
52.59737 0.25416
52.62168 0.25421
52.64646 0.25410
52.67077 0.25415
52.69556 0.25405
52.71985 0.25410
52.74465 0.25400
52.76894 0.25405
52.79374 0.25395
52.81803 0.25400
52.84284 0.25390
52.86712 0.25395
52.89193 0.25385
52.91620 0.25390
52.94101 0.25380
52.96529 0.25385
52.99011 0.25374
53.01437 0.25380
53.03920 0.25369
53.06346 0.25374
53.08829 0.25364
53.11255 0.25369
53.13739 0.25359
53.16164 0.25364
53.18648 0.25354
53.21072 0.25359
53.23557 0.25349
53.25982 0.25354
53.28467 0.25344
53.30890 0.25349
53.33375 0.25339
53.35799 0.25344
53.38285 0.25333
53.40708 0.25339
53.43194 0.25328
53.45616 0.25334
53.48103 0.25323
53.50525 0.25328
53.53012 0.25318
53.55434 0.25323
53.57922 0.25313
53.60342 0.25318
53.62830 0.25308
53.65252 0.25313
53.67741 0.25303
53.70160 0.25308
53.72649 0.25298
53.75068 0.25303
53.77559 0.25293
53.79977 0.25298
53.82468 0.25287
53.84886 0.25293
53.87377 0.25282
53.89796 0.25287
53.92287 0.25277
53.94704 0.25282
53.97196 0.25272
53.99613 0.25277
54.02105 0.25267
54.04521 0.25272
54.07014 0.25262
54.09430 0.25267
54.11923 0.25257
54.14339 0.25262
54.16833 0.25252
54.19247 0.25257
54.21742 0.25247
54.24155 0.25252
54.26651 0.25241
54.29065 0.25246
54.31561 0.25236
54.33974 0.25241
54.36470 0.25231
54.38882 0.25236
54.41378 0.25226
54.43791 0.25231
54.46288 0.25221
54.48699 0.25226
54.51197 0.25216
54.53608 0.25221
54.56106 0.25211
54.58517 0.25216
54.61016 0.25206
54.63425 0.25211
54.65925 0.25200
54.68335 0.25206
54.70834 0.25195
54.73243 0.25201
54.75743 0.25190
54.78153 0.25195
54.80653 0.25185
54.83061 0.25190
54.85562 0.25180
54.87969 0.25185
54.90471 0.25175
54.92879 0.25180
54.95381 0.25170
54.97787 0.25175
55.00290 0.25165
55.02696 0.25170
55.05199 0.25160
55.07604 0.25165
55.10108 0.25154
55.12514 0.25160
55.15018 0.25149
55.17422 0.25154
55.19927 0.25144
55.22331 0.25149
55.24836 0.25139
55.27239 0.25144
55.29745 0.25134
55.32148 0.25139
55.34655 0.25129
55.37057 0.25134
55.39564 0.25124
55.41966 0.25129
55.44473 0.25119
55.46874 0.25124
55.49382 0.25113
55.51783 0.25118
55.54292 0.25108
55.56692 0.25113
55.59201 0.25103
55.61600 0.25108
55.64109 0.25098
55.66509 0.25103
55.69019 0.25093
55.71418 0.25098
55.73929 0.25088
55.76327 0.25093
55.78838 0.25083
55.81236 0.25088
55.83747 0.25078
55.86145 0.25083
55.88657 0.25072
55.91053 0.25077
55.93566 0.25067
55.95962 0.25073
55.98475 0.25062
56.00870 0.25067
56.03384 0.25057
56.05779 0.25062
56.08293 0.25052
56.10689 0.25057
56.13203 0.25047
56.15597 0.25052
56.18112 0.25042
56.20506 0.25047
56.23022 0.25037
56.25414 0.25042
56.27930 0.25031
56.30323 0.25036
56.32840 0.25026
56.35232 0.25031
56.37749 0.25021
56.40140 0.25026
56.42658 0.25016
56.45049 0.25021
56.47567 0.25011
56.49958 0.25016
56.52476 0.25006
56.54867 0.25011
56.57386 0.25001
56.59775 0.25006
56.62295 0.24996
56.64684 0.25001
56.67204 0.24990
56.69593 0.24996
56.72113 0.24985
56.74501 0.24991
56.77022 0.24980
56.79411 0.24986
56.81932 0.24975
56.84319 0.24980
56.86841 0.24970
56.89228 0.24975
56.91751 0.24965
56.94136 0.24970
56.96660 0.24960
56.99045 0.24965
57.01569 0.24955
57.03954 0.24960
57.06478 0.24950
57.08863 0.24955
57.11388 0.24945
57.13771 0.24950
57.16297 0.24940
57.18681 0.24945
57.21207 0.24934
57.23590 0.24939
57.26116 0.24929
57.28498 0.24934
57.31025 0.24924
57.33407 0.24929
57.35934 0.24919
57.38316 0.24924
57.40844 0.24914
57.43224 0.24919
57.45753 0.24909
57.48133 0.24914
57.50662 0.24904
57.53041 0.24909
57.55570 0.24898
57.57951 0.24903
57.60481 0.24893
57.62859 0.24898
57.65390 0.24888
57.67768 0.24893
57.70299 0.24883
57.72676 0.24888
57.75208 0.24878
57.77585 0.24883
57.80118 0.24873
57.82494 0.24878
57.85027 0.24868
57.87403 0.24873
57.89936 0.24863
57.92312 0.24868
57.94846 0.24857
57.97220 0.24862
57.99755 0.24852
58.02129 0.24858
58.04663 0.24847
58.07038 0.24852
58.09573 0.24842
58.11946 0.24847
58.14482 0.24837
58.16856 0.24842
58.19392 0.24832
58.21763 0.24837
58.24300 0.24827
58.26673 0.24832
58.29210 0.24822
58.31581 0.24827
58.34119 0.24817
58.36491 0.24822
58.39029 0.24811
58.41398 0.24816
58.43937 0.24806
58.46308 0.24811
58.48847 0.24801
58.51216 0.24806
58.53756 0.24796
58.56125 0.24801
58.58666 0.24791
58.61033 0.24796
58.63574 0.24786
58.65943 0.24791
58.68485 0.24781
58.70851 0.24786
58.73393 0.24776
58.75760 0.24781
58.78303 0.24771
58.80669 0.24776
58.83212 0.24766
58.85577 0.24771
58.88121 0.24760
58.90486 0.24765
58.93030 0.24755
58.95395 0.24760
58.97940 0.24750
59.00304 0.24755
59.02849 0.24745
59.05212 0.24750
59.07758 0.24740
59.10121 0.24745
59.12667 0.24735
59.15030 0.24740
59.17577 0.24730
59.19939 0.24735
59.22486 0.24725
59.24847 0.24730
59.27395 0.24719
59.29756 0.24724
59.32304 0.24714
59.34665 0.24719
59.37214 0.24709
59.39574 0.24714
59.42123 0.24704
59.44482 0.24709
59.47032 0.24699
59.49391 0.24704
59.51941 0.24694
59.54300 0.24699
59.56851 0.24689
59.59208 0.24694
59.61760 0.24684
59.64117 0.24689
59.66669 0.24678
59.69026 0.24683
59.71579 0.24673
59.73935 0.24678
59.76488 0.24668
59.78843 0.24673
59.81397 0.24663
59.83753 0.24668
59.86307 0.24658
59.88661 0.24663
59.91216 0.24653
59.93569 0.24658
59.96125 0.24648
59.98478 0.24653
60.01034 0.24643
60.03387 0.24647
60.05943 0.24637
60.08296 0.24642
60.10852 0.24632
60.13205 0.24637
60.15763 0.24627
60.18113 0.24632
60.20671 0.24622
60.23022 0.24627
60.25581 0.24617
60.27931 0.24622
60.30490 0.24612
60.32839 0.24617
60.35399 0.24607
60.37749 0.24612
60.40309 0.24602
60.42658 0.24607
60.45218 0.24597
60.47566 0.24601
60.50127 0.24591
60.52474 0.24596
60.55036 0.24586
60.57384 0.24591
60.59946 0.24581
60.62292 0.24586
60.64855 0.24576
60.67201 0.24581
60.69764 0.24571
60.72109 0.24576
60.74673 0.24566
60.77018 0.24571
60.79583 0.24561
60.81928 0.24566
60.84492 0.24556
60.86836 0.24561
60.89401 0.24551
60.91744 0.24555
60.94310 0.24545
60.96653 0.24550
60.99220 0.24540
61.01562 0.24545
61.04129 0.24535
61.06470 0.24540
61.09038 0.24530
61.11379 0.24535
61.13947 0.24525
61.16288 0.24530
61.18857 0.24520
61.21197 0.24525
61.23766 0.24515
61.26106 0.24520
61.28675 0.24510
61.31015 0.24514
61.33585 0.24504
61.35923 0.24509
61.38493 0.24499
61.40832 0.24504
61.43403 0.24494
61.45740 0.24499
61.48312 0.24489
61.50650 0.24494
61.53222 0.24484
61.55558 0.24489
61.58130 0.24479
61.60466 0.24484
61.63040 0.24474
61.65375 0.24479
61.67949 0.24469
61.70284 0.24473
61.72859 0.24463
61.75193 0.24468
61.77768 0.24458
61.80102 0.24463
61.82678 0.24453
61.85011 0.24458
61.87587 0.24448
61.89919 0.24453
61.92496 0.24443
61.94828 0.24448
61.97406 0.24438
61.99736 0.24443
62.02314 0.24433
62.04645 0.24438
62.07224 0.24428
62.09554 0.24433
62.12133 0.24423
62.14463 0.24428
62.17042 0.24417
62.19372 0.24422
62.21952 0.24412
62.24280 0.24417
62.26861 0.24407
62.29190 0.24412
62.31771 0.24402
62.34098 0.24407
62.36679 0.24397
62.39007 0.24402
62.41589 0.24392
62.43915 0.24397
62.46498 0.24387
62.48824 0.24392
62.51407 0.24382
62.53733 0.24387
62.56317 0.24377
62.58642 0.24382
62.61226 0.24371
62.63550 0.24376
62.66135 0.24366
62.68459 0.24371
62.71045 0.24361
62.73368 0.24366
62.75954 0.24356
62.78276 0.24361
62.80863 0.24351
62.83185 0.24356
62.85772 0.24346
62.88094 0.24351
62.90681 0.24341
62.93002 0.24345
62.95590 0.24336
62.97911 0.24340
63.00500 0.24331
63.02821 0.24335
63.05410 0.24325
63.07728 0.24330
63.10318 0.24320
63.12638 0.24325
63.15229 0.24315
63.17547 0.24320
63.20137 0.24310
63.22455 0.24315
63.25046 0.24305
63.27364 0.24310
63.29956 0.24300
63.32273 0.24305
63.34865 0.24295
63.37182 0.24300
63.39775 0.24289
63.42090 0.24294
63.44683 0.24284
63.47000 0.24289
63.49594 0.24279
63.51908 0.24284
63.54503 0.24274
63.56816 0.24279
63.59411 0.24269
63.61725 0.24274
63.64321 0.24264
63.66635 0.24269
63.69231 0.24259
63.71542 0.24264
63.74139 0.24254
63.76451 0.24259
63.79048 0.24249
63.81360 0.24253
63.83958 0.24243
63.86269 0.24248
63.88867 0.24238
63.91177 0.24243
63.93776 0.24233
63.96086 0.24238
63.98686 0.24228
64.00995 0.24233
64.03595 0.24223
64.05904 0.24228
64.08505 0.24218
64.10813 0.24223
64.13414 0.24213
64.15721 0.24218
64.18322 0.24208
64.20629 0.24212
64.23232 0.24202
64.25539 0.24207
64.28142 0.24197
64.30447 0.24202
64.33051 0.24192
64.35356 0.24197
64.37960 0.24187
64.40265 0.24192
64.42869 0.24182
64.45174 0.24187
64.47779 0.24177
64.50083 0.24182
64.52689 0.24172
64.54991 0.24177
64.57597 0.24167
64.59899 0.24172
64.62506 0.24162
64.64808 0.24167
64.67416 0.24157
64.69718 0.24161
64.72326 0.24151
64.74627 0.24156
64.77235 0.24146
64.79534 0.24151
64.82143 0.24141
64.84444 0.24146
64.87053 0.24136
64.89353 0.24141
64.91963 0.24131
64.94261 0.24136
64.96872 0.24126
64.99169 0.24131
65.01780 0.24121
65.04078 0.24126
65.06690 0.24115
65.08987 0.24120
65.11600 0.24110
65.13896 0.24115
65.16509 0.24105
65.18805 0.24110
65.21418 0.24100
65.23713 0.24105
65.26327 0.24095
65.28622 0.24100
65.31236 0.24090
65.33530 0.24095
65.36145 0.24085
65.38440 0.24090
65.41056 0.24080
65.43348 0.24085
65.45964 0.24075
65.48257 0.24079
65.50873 0.24069
65.53167 0.24074
65.55784 0.24064
65.58075 0.24069
65.60692 0.24059
65.62984 0.24064
65.65602 0.24054
65.67893 0.24059
65.70511 0.24049
65.72801 0.24054
65.75421 0.24044
65.77710 0.24049
65.80330 0.24039
65.82618 0.24044
65.85239 0.24034
65.87527 0.24038
65.90148 0.24028
65.92435 0.24033
65.95057 0.24023
65.97345 0.24028
65.99967 0.24018
66.02253 0.24023
66.04876 0.24013
66.07163 0.24018
66.09786 0.24008
66.12070 0.24013
66.14694 0.24003
66.16980 0.24008
66.19604 0.23998
66.21889 0.24003
66.24514 0.23993
66.26798 0.23997
66.29423 0.23988
66.31706 0.23992
66.34332 0.23982
66.36614 0.23987
66.39241 0.23977
66.41523 0.23982
66.44150 0.23972
66.46432 0.23977
66.49060 0.23967
66.51341 0.23972
66.53969 0.23962
66.56250 0.23967
66.58879 0.23957
66.61158 0.23962
66.63788 0.23952
66.66067 0.23956
66.68697 0.23947
66.70976 0.23951
66.73607 0.23941
66.75884 0.23946
66.78516 0.23936
66.80793 0.23941
66.83425 0.23931
66.85702 0.23936
66.88334 0.23926
66.90611 0.23931
66.93244 0.23921
66.95520 0.23926
66.98153 0.23916
67.00429 0.23921
67.03063 0.23911
67.05337 0.23916
67.07971 0.23906
67.10245 0.23910
67.12881 0.23900
67.15154 0.23905
67.17790 0.23895
67.20063 0.23900
67.22699 0.23890
67.24972 0.23895
67.27609 0.23885
67.29880 0.23890
67.32518 0.23880
67.34789 0.23885
67.37427 0.23875
67.39699 0.23880
67.42337 0.23870
67.44607 0.23875
67.47246 0.23865
67.49516 0.23870
67.52155 0.23860
67.54424 0.23864
67.57064 0.23855
67.59333 0.23859
67.61974 0.23849
67.64242 0.23854
67.66884 0.23844
67.69150 0.23849
67.71792 0.23839
67.74059 0.23844
67.76701 0.23834
67.78967 0.23839
67.81610 0.23829
67.83877 0.23834
67.86521 0.23824
67.88785 0.23828
67.91429 0.23819
67.93694 0.23823
67.96338 0.23814
67.98603 0.23818
68.01248 0.23808
68.03511 0.23813
68.06157 0.23803
68.08421 0.23808
68.11067 0.23798
68.13329 0.23803
68.15976 0.23793
68.18238 0.23798
68.20885 0.23788
68.23147 0.23793
68.25795 0.23783
68.28056 0.23788
68.30704 0.23778
68.32964 0.23783
68.35613 0.23773
68.37873 0.23777
68.40523 0.23768
68.42781 0.23772
68.45432 0.23762
68.47691 0.23767
68.50342 0.23757
68.52600 0.23762
68.55251 0.23752
68.57508 0.23757
68.60160 0.23747
68.62417 0.23752
68.65070 0.23742
68.67325 0.23747
68.69978 0.23737
68.72234 0.23742
68.74888 0.23732
68.77143 0.23736
68.79797 0.23726
68.82052 0.23731
68.84707 0.23721
68.86960 0.23726
68.89615 0.23716
68.91869 0.23721
68.94525 0.23711
68.96778 0.23716
68.99435 0.23706
69.01686 0.23711
69.04344 0.23701
69.06595 0.23706
69.09253 0.23696
69.11504 0.23701
69.14162 0.23691
69.16413 0.23695
69.19072 0.23686
69.21322 0.23690
69.23981 0.23680
69.26230 0.23685
69.28891 0.23675
69.31139 0.23680
69.33800 0.23670
69.36048 0.23675
69.38709 0.23665
69.40957 0.23670
69.43618 0.23660
69.45865 0.23665
69.48527 0.23655
69.50773 0.23660
69.53436 0.23650
69.55683 0.23655
69.58346 0.23645
69.60591 0.23649
69.63255 0.23639
69.65500 0.23644
69.68165 0.23634
69.70409 0.23639
69.73074 0.23629
69.75318 0.23634
69.77984 0.23624
69.80226 0.23629
69.82893 0.23619
69.85134 0.23624
69.87801 0.23614
69.90044 0.23619
69.92711 0.23609
69.94952 0.23614
69.97620 0.23604
69.99861 0.23608
70.02530 0.23598
70.04770 0.23603
70.07440 0.23594
70.09678 0.23598
70.12348 0.23589
70.14587 0.23593
70.17258 0.23583
70.19496 0.23588
70.22167 0.23578
70.24405 0.23583
70.27077 0.23573
70.29313 0.23578
70.31986 0.23568
70.34222 0.23573
70.36895 0.23563
70.39132 0.23568
70.41805 0.23558
70.44040 0.23563
70.46714 0.23553
70.48948 0.23557
70.51623 0.23547
70.53857 0.23552
70.56532 0.23542
70.58766 0.23547
70.61442 0.23537
70.63675 0.23542
70.66351 0.23532
70.68583 0.23537
70.71260 0.23527
70.73493 0.23532
70.76170 0.23522
70.78401 0.23527
70.81080 0.23517
70.83310 0.23521
70.85989 0.23512
70.88218 0.23516
70.90897 0.23507
70.93127 0.23511
70.95807 0.23501
70.98036 0.23506
71.00717 0.23496
71.02945 0.23501
71.05626 0.23491
71.07853 0.23496
71.10535 0.23486
71.12762 0.23491
71.15444 0.23481
71.17671 0.23486
71.20353 0.23476
71.22580 0.23480
71.25263 0.23471
71.27489 0.23475
71.30173 0.23466
71.32397 0.23470
71.35082 0.23460
71.37307 0.23465
71.39992 0.23455
71.42215 0.23460
71.44900 0.23450
71.47123 0.23455
71.49810 0.23445
71.52032 0.23450
71.54719 0.23440
71.56941 0.23445
71.59628 0.23435
71.61849 0.23440
71.64538 0.23430
71.66758 0.23434
71.69446 0.23425
71.71667 0.23429
71.74357 0.23420
71.76576 0.23424
71.79266 0.23414
71.81484 0.23419
71.84175 0.23409
71.86393 0.23414
71.89084 0.23404
71.91302 0.23409
71.93993 0.23399
71.96211 0.23404
71.98903 0.23394
72.01119 0.23399
72.03812 0.23389
72.06029 0.23393
72.08722 0.23384
72.10936 0.23388
72.13630 0.23379
72.15846 0.23383
72.18540 0.23373
72.20754 0.23378
72.23449 0.23368
72.25663 0.23373
72.28359 0.23363
72.30572 0.23368
72.33268 0.23358
72.35481 0.23363
72.38178 0.23353
72.40389 0.23358
72.43086 0.23348
72.45298 0.23353
72.47996 0.23343
72.50206 0.23348
72.52905 0.23338
72.55116 0.23342
72.57815 0.23332
72.60025 0.23337
72.62725 0.23327
72.64932 0.23332
72.67633 0.23322
72.69842 0.23327
72.72543 0.23317
72.74751 0.23322
72.77452 0.23312
72.79660 0.23317
72.82362 0.23307
72.84568 0.23312
72.87271 0.23302
72.89477 0.23306
72.92180 0.23297
72.94385 0.23302
72.97089 0.23292
72.99294 0.23296
73.01999 0.23286
73.04203 0.23291
73.06908 0.23281
73.09112 0.23286
73.11818 0.23276
73.14021 0.23281
73.16727 0.23271
73.18929 0.23276
73.21636 0.23266
73.23838 0.23271
73.26545 0.23261
73.28747 0.23266
73.31455 0.23256
73.33655 0.23260
73.36364 0.23251
73.38564 0.23255
73.41273 0.23246
73.43473 0.23250
73.46183 0.23240
73.48382 0.23245
73.51093 0.23235
73.53291 0.23240
73.56002 0.23230
73.58199 0.23235
73.60910 0.23225
73.63108 0.23230
73.65820 0.23220
73.68017 0.23225
73.70730 0.23215
73.72925 0.23220
73.75639 0.23210
73.77834 0.23214
73.80548 0.23205
73.82743 0.23209
73.85458 0.23199
73.87652 0.23204
73.90368 0.23194
73.92561 0.23199
73.95277 0.23189
73.97469 0.23194
74.00186 0.23184
74.02378 0.23189
74.05095 0.23179
74.07286 0.23184
74.10004 0.23174
74.12195 0.23178
74.14914 0.23169
74.17104 0.23173
74.19823 0.23164
74.22012 0.23168
74.24732 0.23159
74.26922 0.23163
74.29642 0.23154
74.31830 0.23158
74.34551 0.23148
74.36739 0.23153
74.39460 0.23143
74.41647 0.23148
74.44369 0.23138
74.46556 0.23143
74.49278 0.23133
74.51465 0.23138
74.54188 0.23128
74.56374 0.23133
74.59098 0.23123
74.61283 0.23127
74.64007 0.23118
74.66192 0.23122
74.68917 0.23113
74.71099 0.23117
74.73825 0.23107
74.76009 0.23112
74.78735 0.23102
74.80917 0.23107
74.83644 0.23097
74.85826 0.23102
74.88553 0.23092
74.90735 0.23097
74.93463 0.23087
74.95644 0.23091
74.98373 0.23082
75.00552 0.23086
75.03281 0.23077
75.05461 0.23081
75.08191 0.23071
75.10369 0.23076
75.13100 0.23066
75.15279 0.23071
75.18010 0.23061
75.20188 0.23066
75.22920 0.23056
75.25096 0.23061
75.27828 0.23051
75.30005 0.23056
75.32738 0.23046
75.34913 0.23050
75.37647 0.23041
75.39822 0.23045
75.42556 0.23036
75.44731 0.23040
75.47466 0.23031
75.49640 0.23035
75.52376 0.23025
75.54549 0.23030
75.57285 0.23020
75.59457 0.23025
75.62194 0.23015
75.64366 0.23020
75.67103 0.23010
75.69275 0.23015
75.72013 0.23005
75.74184 0.23010
75.76923 0.23000
75.79092 0.23004
75.81831 0.22995
75.84000 0.22999
75.86740 0.22990
75.88910 0.22994
75.91650 0.22985
75.93819 0.22989
75.96560 0.22979
75.98727 0.22984
76.01469 0.22974
76.03636 0.22979
76.06378 0.22969
76.08544 0.22974
76.11287 0.22964
76.13454 0.22969
76.16197 0.22959
76.18362 0.22963
76.21106 0.22954
76.23270 0.22958
76.26015 0.22949
76.28179 0.22953
76.30924 0.22944
76.33089 0.22948
76.35835 0.22938
76.37997 0.22943
76.40743 0.22933
76.42906 0.22938
76.45653 0.22928
76.47814 0.22933
76.50562 0.22923
76.52724 0.22928
76.55472 0.22918
76.57632 0.22923
76.60381 0.22913
76.62541 0.22917
76.65290 0.22908
76.67449 0.22912
76.70199 0.22903
76.72358 0.22907
76.75109 0.22898
76.77267 0.22902
76.80018 0.22892
76.82175 0.22897
76.84927 0.22887
76.87085 0.22892
76.89837 0.22882
76.91993 0.22887
76.94746 0.22877
76.96902 0.22882
76.99656 0.22872
77.01810 0.22876
77.04564 0.22867
77.06720 0.22871
77.09475 0.22862
77.11628 0.22866
77.14383 0.22857
77.16538 0.22861
77.19294 0.22851
77.21445 0.22856
77.24202 0.22846
77.26354 0.22851
77.29112 0.22841
77.31263 0.22846
77.34021 0.22836
77.36171 0.22841
77.38930 0.22831
77.41080 0.22836
77.43839 0.22826
77.45990 0.22830
77.48750 0.22821
77.50899 0.22825
77.53659 0.22816
77.55806 0.22820
77.58567 0.22811
77.60716 0.22815
77.63478 0.22805
77.65624 0.22810
77.68386 0.22800
77.70533 0.22805
77.73296 0.22795
77.75442 0.22800
77.78205 0.22790
77.80350 0.22795
77.83114 0.22785
77.85259 0.22789
77.88024 0.22780
77.90168 0.22784
77.92933 0.22775
77.95077 0.22779
77.97843 0.22770
77.99986 0.22774
78.02752 0.22764
78.04894 0.22769
78.07661 0.22759
78.09803 0.22764
78.12571 0.22754
78.14711 0.22759
78.17480 0.22749
78.19620 0.22754
78.22389 0.22744
78.24529 0.22749
78.27299 0.22739
78.29438 0.22743
78.32209 0.22734
78.34346 0.22738
78.37117 0.22729
78.39256 0.22733
78.42028 0.22724
78.44164 0.22728
78.46937 0.22718
78.49072 0.22723
78.51845 0.22713
78.53982 0.22718
78.56755 0.22708
78.58890 0.22713
78.61665 0.22703
78.63799 0.22707
78.66574 0.22698
78.68708 0.22702
78.71483 0.22693
78.73616 0.22697
78.76392 0.22688
78.78525 0.22692
78.81302 0.22683
78.83434 0.22687
78.86211 0.22677
78.88343 0.22682
78.91120 0.22672
78.93251 0.22677
78.96030 0.22667
78.98161 0.22672
79.00940 0.22662
79.03069 0.22667
79.05849 0.22657
79.07978 0.22661
79.10758 0.22652
79.12886 0.22656
79.15667 0.22647
79.17795 0.22651
79.20577 0.22642
79.22704 0.22646
79.25486 0.22637
79.27612 0.22641
79.30395 0.22632
79.32521 0.22636
79.35305 0.22626
79.37431 0.22631
79.40215 0.22621
79.42338 0.22626
79.45123 0.22616
79.47247 0.22620
79.50033 0.22611
79.52156 0.22615
79.54942 0.22606
79.57065 0.22610
79.59852 0.22601
79.61973 0.22605
79.64761 0.22596
79.66883 0.22600
79.69671 0.22591
79.71791 0.22595
79.74580 0.22585
79.76700 0.22590
79.79489 0.22580
79.81608 0.22585
79.84398 0.22575
79.86518 0.22580
79.89308 0.22570
79.91427 0.22574
79.94218 0.22565
79.96335 0.22569
79.99127 0.22560
80.01244 0.22564
80.04037 0.22555
80.06153 0.22559
80.08946 0.22550
80.11061 0.22554
80.13855 0.22545
80.15969 0.22549
80.18764 0.22539
80.20879 0.22544
80.23674 0.22534
80.25788 0.22539
80.28583 0.22529
80.30697 0.22533
80.33493 0.22524
80.35606 0.22528
80.38402 0.22519
80.40513 0.22523
80.43311 0.22514
80.45423 0.22518
80.48221 0.22509
80.50331 0.22513
80.53129 0.22503
80.55240 0.22508
80.58039 0.22498
80.60148 0.22503
80.62948 0.22493
80.65058 0.22498
80.67858 0.22488
80.69966 0.22492
80.72767 0.22483
80.74875 0.22487
80.77677 0.22478
80.79783 0.22482
80.82586 0.22473
80.84693 0.22477
80.87496 0.22468
80.89601 0.22472
80.92405 0.22462
80.94510 0.22467
80.97314 0.22457
80.99418 0.22462
81.02223 0.22452
81.04328 0.22457
81.07133 0.22447
81.09236 0.22452
81.12043 0.22442
81.14145 0.22447
81.16952 0.22437
81.19054 0.22441
81.21862 0.22432
81.23963 0.22436
81.26771 0.22427
81.28871 0.22431
81.31680 0.22422
81.33780 0.22426
81.36590 0.22417
81.38688 0.22421
81.41498 0.22412
81.43597 0.22416
81.46408 0.22406
81.48506 0.22411
81.51317 0.22401
81.53414 0.22406
81.56227 0.22396
81.58324 0.22400
81.61137 0.22391
81.63232 0.22395
81.66045 0.22386
81.68141 0.22390
81.70955 0.22381
81.73050 0.22385
81.75864 0.22375
81.77959 0.22380
81.80774 0.22370
81.82867 0.22375
81.85683 0.22365
81.87776 0.22370
81.90592 0.22360
81.92684 0.22365
81.95502 0.22355
81.97593 0.22359
82.00411 0.22350
82.02502 0.22354
82.05321 0.22345
82.07410 0.22349
82.10230 0.22340
82.12320 0.22344
82.15140 0.22335
82.17228 0.22339
82.20048 0.22330
82.22138 0.22334
82.24959 0.22324
82.27046 0.22329
82.29868 0.22319
82.31954 0.22323
82.34777 0.22314
82.36863 0.22319
82.39686 0.22309
82.41772 0.22313
82.44596 0.22304
82.46681 0.22308
82.49505 0.22299
82.51589 0.22303
82.54414 0.22294
82.56498 0.22298
82.59324 0.22288
82.61407 0.22293
82.64234 0.22283
82.66316 0.22288
82.69143 0.22278
82.71225 0.22283
82.74052 0.22273
82.76134 0.22278
82.78962 0.22268
82.81042 0.22273
82.83871 0.22263
82.85950 0.22267
82.88780 0.22258
82.90860 0.22262
82.93690 0.22253
82.95768 0.22257
82.98599 0.22248
83.00677 0.22252
83.03509 0.22242
83.05586 0.22247
83.08418 0.22237
83.10495 0.22242
83.13328 0.22232
83.15404 0.22237
83.18237 0.22227
83.20312 0.22231
83.23146 0.22222
83.25221 0.22226
83.28055 0.22217
83.30129 0.22221
83.32964 0.22212
83.35038 0.22216
83.37874 0.22207
83.39947 0.22211
83.42783 0.22201
83.44856 0.22206
83.47693 0.22196
83.49764 0.22201
83.52602 0.22191
83.54673 0.22196
83.57512 0.22186
83.59582 0.22191
83.62422 0.22181
83.64490 0.22185
83.67330 0.22176
83.69400 0.22180
83.72240 0.22171
83.74308 0.22175
83.77149 0.22166
83.79216 0.22170
83.82058 0.22161
83.84126 0.22165
83.86969 0.22156
83.89034 0.22160
83.91878 0.22150
83.93942 0.22155
83.96786 0.22145
83.98852 0.22150
84.01697 0.22140
84.03760 0.22145
84.06606 0.22135
84.08669 0.22139
84.11515 0.22130
84.13579 0.22134
84.16425 0.22125
84.18486 0.22129
84.21333 0.22120
84.23396 0.22124
84.26244 0.22115
84.28304 0.22119
84.31152 0.22109
84.33213 0.22114
84.36062 0.22104
84.38122 0.22109
84.40972 0.22099
84.43030 0.22104
84.45881 0.22094
84.47939 0.22098
84.50790 0.22089
84.52847 0.22093
84.55699 0.22084
84.57757 0.22088
84.60609 0.22079
84.62665 0.22083
84.65518 0.22074
84.67574 0.22078
84.70428 0.22068
84.72483 0.22073
84.75338 0.22063
84.77392 0.22068
84.80247 0.22058
84.82300 0.22063
84.85156 0.22053
84.87209 0.22057
84.90066 0.22048
84.92118 0.22052
84.94975 0.22043
84.97027 0.22047
84.99884 0.22038
85.01935 0.22042
85.04793 0.22033
85.06844 0.22037
85.09704 0.22028
85.11752 0.22032
85.14612 0.22023
85.16661 0.22027
85.19521 0.22017
85.21570 0.22021
85.24431 0.22012
85.26478 0.22016
85.29340 0.22007
85.31388 0.22011
85.34250 0.22002
85.36296 0.22006
85.39160 0.21997
85.41205 0.22001
85.44069 0.21992
85.46114 0.21996
85.48978 0.21987
85.51023 0.21991
85.53888 0.21982
85.55931 0.21986
85.58796 0.21976
85.60840 0.21981
85.63707 0.21971
85.65750 0.21976
85.68617 0.21966
85.70658 0.21971
85.73526 0.21961
85.75566 0.21965
85.78435 0.21956
85.80475 0.21960
85.83344 0.21951
85.85384 0.21955
85.88254 0.21946
85.90292 0.21950
85.93163 0.21941
85.95202 0.21945
85.98073 0.21935
86.00110 0.21940
86.02982 0.21930
86.05018 0.21935
86.07891 0.21925
86.09927 0.21930
86.12801 0.21920
86.14836 0.21924
86.17710 0.21915
86.19745 0.21919
86.22620 0.21910
86.24653 0.21914
86.27529 0.21905
86.29563 0.21909
86.32439 0.21900
86.34471 0.21904
86.37348 0.21894
86.39380 0.21899
86.42257 0.21889
86.44288 0.21894
86.47166 0.21884
86.49197 0.21889
86.52076 0.21879
86.54107 0.21883
86.56986 0.21874
86.59015 0.21878
86.61895 0.21869
86.63923 0.21873
86.66804 0.21864
86.68832 0.21868
86.71713 0.21859
86.73741 0.21863
86.76623 0.21854
86.78649 0.21858
86.81532 0.21848
86.83558 0.21853
86.86442 0.21843
86.88467 0.21848
86.91351 0.21838
86.93376 0.21843
86.96261 0.21833
86.98284 0.21837
87.01170 0.21828
87.03193 0.21832
87.06080 0.21823
87.08102 0.21827
87.10989 0.21818
87.13011 0.21822
87.15898 0.21813
87.17920 0.21817
87.20808 0.21807
87.22828 0.21812
87.25717 0.21802
87.27738 0.21807
87.30627 0.21797
87.32646 0.21802
87.35536 0.21792
87.37555 0.21797
87.40445 0.21787
87.42464 0.21791
87.45355 0.21782
87.47372 0.21786
87.50264 0.21777
87.52280 0.21781
87.55173 0.21772
87.57190 0.21776
87.60083 0.21767
87.62098 0.21771
87.64992 0.21761
87.67007 0.21766
87.69902 0.21756
87.71916 0.21761
87.74812 0.21751
87.76824 0.21756
87.79721 0.21746
87.81732 0.21750
87.84629 0.21741
87.86642 0.21745
87.89540 0.21736
87.91551 0.21740
87.94450 0.21731
87.96459 0.21735
87.99358 0.21726
88.01368 0.21730
88.04268 0.21720
88.06277 0.21725
88.09177 0.21715
88.11185 0.21720
88.14086 0.21710
88.16095 0.21714
88.18997 0.21705
88.21003 0.21709
88.23906 0.21700
88.25911 0.21704
88.28814 0.21695
88.30821 0.21699
88.33724 0.21690
88.35729 0.21694
88.38633 0.21685
88.40638 0.21689
88.43544 0.21680
88.45547 0.21684
88.48453 0.21674
88.50455 0.21679
88.53362 0.21669
88.55364 0.21674
88.58272 0.21664
88.60272 0.21668
88.63180 0.21659
88.65182 0.21663
88.68090 0.21654
88.70091 0.21658
88.73000 0.21649
88.74999 0.21653
88.77909 0.21644
88.79908 0.21648
88.82819 0.21639
88.84817 0.21643
88.87728 0.21634
88.89726 0.21638
88.92638 0.21628
88.94634 0.21633
88.97546 0.21623
88.99543 0.21628
89.02456 0.21618
89.04451 0.21622
89.07365 0.21613
89.09360 0.21617
89.12274 0.21608
89.14269 0.21612
89.17184 0.21603
89.19177 0.21607
89.22093 0.21598
89.24087 0.21602
89.27004 0.21593
89.28996 0.21597
89.31913 0.21588
89.33905 0.21592
89.36823 0.21582
89.38813 0.21587
89.41732 0.21577
89.43722 0.21582
89.46642 0.21572
89.48630 0.21576
89.51551 0.21567
89.53539 0.21571
89.56460 0.21562
89.58447 0.21566
89.61369 0.21557
89.63356 0.21561
89.66279 0.21552
89.68265 0.21556
89.71188 0.21547
89.73174 0.21551
89.76098 0.21541
89.78083 0.21546
89.81008 0.21536
89.82991 0.21540
89.85916 0.21531
89.87900 0.21535
89.90826 0.21526
89.92809 0.21530
89.95735 0.21521
89.97717 0.21525
90.00644 0.21516
90.02627 0.21520
90.05555 0.21511
90.07535 0.21515
90.10464 0.21506
90.12444 0.21510
90.15373 0.21501
90.17353 0.21505
90.20283 0.21495
90.22261 0.21500
90.25192 0.21490
90.27170 0.21495
90.30102 0.21485
90.32079 0.21489
90.35011 0.21480
90.36988 0.21484
90.39921 0.21475
90.41896 0.21479
90.44830 0.21470
90.46805 0.21474
90.49739 0.21465
90.51714 0.21469
90.54649 0.21460
90.56623 0.21464
90.59559 0.21455
90.61531 0.21459
90.64467 0.21449
90.66440 0.21453
90.69377 0.21444
90.71349 0.21448
90.74286 0.21439
90.76258 0.21443
90.79196 0.21434
90.81166 0.21438
90.84105 0.21429
90.86074 0.21433
90.89014 0.21424
90.90984 0.21428
90.93924 0.21419
90.95892 0.21423
90.98834 0.21414
91.00802 0.21418
91.03744 0.21408
91.05711 0.21412
91.08653 0.21403
91.10619 0.21407
91.13562 0.21398
91.15528 0.21402
91.18472 0.21393
91.20436 0.21397
91.23381 0.21388
91.25345 0.21392
91.28291 0.21383
91.30254 0.21387
91.33200 0.21378
91.35162 0.21382
91.38109 0.21373
91.40071 0.21377
91.43018 0.21367
91.44980 0.21372
91.47929 0.21362
91.49888 0.21366
91.52837 0.21357
91.54797 0.21361
91.57747 0.21352
91.59707 0.21356
91.62657 0.21347
91.64615 0.21351
91.67566 0.21342
91.69523 0.21346
91.72475 0.21337
91.74433 0.21341
91.77385 0.21332
91.79341 0.21336
91.82294 0.21326
91.84250 0.21330
91.87204 0.21321
91.89159 0.21325
91.92113 0.21316
91.94066 0.21320
91.97022 0.21311
91.98976 0.21315
92.01932 0.21306
92.03884 0.21310
92.06841 0.21301
92.08793 0.21305
92.11751 0.21296
92.13703 0.21300
92.16661 0.21291
92.18610 0.21295
92.21569 0.21286
92.23519 0.21290
92.26479 0.21281
92.28429 0.21285
92.31389 0.21275
92.33337 0.21279
92.36299 0.21270
92.38246 0.21274
92.41208 0.21265
92.43155 0.21269
92.46118 0.21260
92.48063 0.21264
92.51026 0.21255
92.52972 0.21259
92.55935 0.21250
92.57882 0.21254
92.60846 0.21245
92.62789 0.21249
92.65755 0.21240
92.67698 0.21244
92.70664 0.21234
92.72607 0.21239
92.75573 0.21229
92.77516 0.21233
92.80483 0.21224
92.82424 0.21228
92.85392 0.21219
92.87333 0.21223
92.90302 0.21214
92.92242 0.21218
92.95212 0.21209
92.97150 0.21213
93.00120 0.21204
93.02060 0.21208
93.05031 0.21199
93.06968 0.21203
93.09940 0.21193
93.11877 0.21198
93.14850 0.21188
93.16786 0.21192
93.19759 0.21183
93.21694 0.21187
93.24668 0.21178
93.26603 0.21182
93.29578 0.21173
93.31511 0.21177
93.34487 0.21168
93.36420 0.21172
93.39397 0.21163
93.41329 0.21167
93.44306 0.21157
93.46238 0.21162
93.49216 0.21152
93.51147 0.21156
93.54126 0.21147
93.56056 0.21152
93.59035 0.21142
93.60964 0.21146
93.63944 0.21137
93.65873 0.21141
93.68854 0.21132
93.70782 0.21136
93.73763 0.21127
93.75691 0.21131
93.78673 0.21122
93.80599 0.21126
93.83581 0.21117
93.85508 0.21121
93.88491 0.21112
93.90417 0.21116
93.93401 0.21106
93.95326 0.21111
93.98311 0.21101
94.00234 0.21105
94.03220 0.21096
94.05143 0.21100
94.08129 0.21091
94.10052 0.21095
94.13039 0.21086
94.14961 0.21090
94.17949 0.21081
94.19870 0.21085
94.22858 0.21076
94.24778 0.21080
94.27767 0.21071
94.29687 0.21075
94.32677 0.21065
94.34595 0.21069
94.37586 0.21060
94.39504 0.21064
94.42495 0.21055
94.44413 0.21059
94.47405 0.21050
94.49321 0.21054
94.52314 0.21045
94.54231 0.21049
94.57225 0.21040
94.59139 0.21044
94.62133 0.21035
94.64047 0.21039
94.67042 0.21030
94.68956 0.21034
94.71951 0.21025
94.73865 0.21029
94.76861 0.21019
94.78774 0.21024
94.81771 0.21014
94.83682 0.21018
94.86680 0.21009
94.88591 0.21013
94.91590 0.21004
94.93500 0.21008
94.96499 0.20999
94.98409 0.21003
95.01409 0.20994
95.03318 0.20998
95.06319 0.20989
95.08227 0.20993
95.11228 0.20984
95.13136 0.20988
95.16138 0.20979
95.18045 0.20983
95.21048 0.20973
95.22953 0.20977
95.25957 0.20968
95.27861 0.20972
95.30866 0.20963
95.32771 0.20967
95.35776 0.20958
95.37679 0.20962
95.40685 0.20953
95.42588 0.20957
95.45594 0.20948
95.47496 0.20952
95.50504 0.20943
95.52405 0.20947
95.55413 0.20938
95.57313 0.20942
95.60322 0.20933
95.62222 0.20937
95.65232 0.20927
95.67132 0.20931
95.70142 0.20922
95.72039 0.20926
95.75050 0.20917
95.76949 0.20921
95.79960 0.20912
95.81858 0.20916
95.84870 0.20907
95.86766 0.20911
95.89779 0.20902
95.91675 0.20906
95.94689 0.20897
95.96584 0.20901
95.99599 0.20891
96.01492 0.20895
96.04508 0.20886
96.06401 0.20890
96.09417 0.20881
96.11310 0.20885
96.14327 0.20876
96.16219 0.20880
96.19236 0.20871
96.21127 0.20875
96.24146 0.20866
96.26036 0.20870
96.29055 0.20861
96.30945 0.20865
96.33965 0.20856
96.35854 0.20860
96.38875 0.20851
96.40763 0.20855
96.43785 0.20845
96.45672 0.20849
96.48694 0.20840
96.50580 0.20844
96.53602 0.20835
96.55488 0.20839
96.58512 0.20830
96.60397 0.20834
96.63422 0.20825
96.65306 0.20829
96.68331 0.20820
96.70215 0.20824
96.73241 0.20815
96.75123 0.20819
96.78150 0.20810
96.80032 0.20813
96.83060 0.20804
96.84941 0.20808
96.87969 0.20799
96.89850 0.20803
96.92879 0.20794
96.94758 0.20798
96.97788 0.20789
96.99667 0.20793
97.02697 0.20784
97.04576 0.20788
97.07607 0.20779
97.09485 0.20783
97.12517 0.20774
97.14394 0.20778
97.17426 0.20769
97.19303 0.20773
97.22336 0.20764
97.24211 0.20768
97.27245 0.20758
97.29119 0.20762
97.32154 0.20753
97.34029 0.20757
97.37065 0.20748
97.38937 0.20752
97.41974 0.20743
97.43846 0.20747
97.46883 0.20738
97.48754 0.20742
97.51792 0.20733
97.53663 0.20737
97.56701 0.20728
97.58572 0.20732
97.61612 0.20723
97.63481 0.20727
97.66521 0.20718
97.68390 0.20722
97.71431 0.20712
97.73298 0.20716
97.76340 0.20707
97.78207 0.20711
97.81249 0.20702
97.83116 0.20706
97.86159 0.20697
97.88024 0.20701
97.91068 0.20692
97.92933 0.20696
97.95978 0.20687
97.97843 0.20691
98.00888 0.20682
98.02751 0.20686
98.05797 0.20677
98.07660 0.20681
98.10707 0.20672
98.12569 0.20675
98.15617 0.20666
98.17477 0.20670
98.20525 0.20661
98.22385 0.20665
98.25434 0.20656
98.27295 0.20660
98.30345 0.20651
98.32203 0.20655
98.35253 0.20646
98.37113 0.20650
98.40164 0.20641
98.42020 0.20645
98.45072 0.20636
98.46930 0.20640
98.49983 0.20631
98.51838 0.20635
98.54891 0.20625
98.56747 0.20629
98.59801 0.20620
98.61656 0.20624
98.64711 0.20615
98.66565 0.20619
98.69621 0.20610
98.71473 0.20614
98.74530 0.20605
98.76382 0.20609
98.79439 0.20600
98.81291 0.20604
98.84350 0.20595
98.86199 0.20599
98.89258 0.20590
98.91108 0.20594
98.94168 0.20585
98.96017 0.20588
98.99077 0.20579
99.00925 0.20583
99.03986 0.20574
99.05834 0.20578
99.08896 0.20569
99.10743 0.20573
99.13806 0.20564
99.15651 0.20568
99.18715 0.20559
99.20560 0.20563
99.23624 0.20554
99.25470 0.20558
99.28535 0.20549
99.30378 0.20553
99.33444 0.20544
99.35286 0.20547
99.38352 0.20539
99.40195 0.20542
99.43262 0.20533
99.45104 0.20537
99.48173 0.20528
99.50013 0.20532
99.53082 0.20523
99.54922 0.20527
99.57991 0.20518
99.59830 0.20522
99.62901 0.20513
99.64740 0.20517
99.67811 0.20508
99.69647 0.20512
99.72719 0.20503
99.74557 0.20507
99.77629 0.20498
99.79465 0.20501
99.82538 0.20492
99.84375 0.20496
99.87449 0.20487
99.89283 0.20491
99.92358 0.20482
99.94191 0.20486
99.97267 0.20477
99.99100 0.20481
100.02177 0.20472
100.04009 0.20476
100.07086 0.20467
100.08918 0.20471
100.11996 0.20462
100.13826 0.20465
100.16905 0.20457
100.18736 0.20460
100.21815 0.20451
100.23644 0.20455
100.26725 0.20446
100.28552 0.20450
100.31633 0.20441
100.33462 0.20445
100.36544 0.20436
100.38370 0.20440
100.41453 0.20431
100.43278 0.20435
100.46362 0.20426
100.48188 0.20430
100.51273 0.20421
100.53096 0.20425
100.56181 0.20416
100.58006 0.20420
100.61091 0.20410
100.62914 0.20414
100.66000 0.20405
100.67823 0.20409
100.70910 0.20400
100.72732 0.20404
100.75820 0.20395
100.77640 0.20399
100.80729 0.20390
100.82549 0.20394
100.85639 0.20385
100.87458 0.20389
100.90548 0.20380
100.92366 0.20384
100.95457 0.20375
100.97275 0.20378
101.00367 0.20369
101.02185 0.20373
101.05277 0.20365
101.07093 0.20368
101.10187 0.20359
101.12002 0.20363
101.15096 0.20354
101.16910 0.20358
101.20005 0.20349
101.21819 0.20353
101.24915 0.20344
101.26727 0.20348
101.29824 0.20339
101.31636 0.20343
101.34734 0.20334
101.36546 0.20338
101.39644 0.20329
101.41453 0.20333
101.44552 0.20324
101.46363 0.20327
101.49463 0.20318
101.51271 0.20322
101.54371 0.20313
101.56180 0.20317
101.59281 0.20308
101.61088 0.20312
101.64190 0.20303
101.65997 0.20307
101.69100 0.20298
101.70906 0.20302
101.74010 0.20293
101.75815 0.20297
101.78919 0.20288
101.80724 0.20292
101.83830 0.20283
101.85633 0.20286
101.88739 0.20277
101.90541 0.20281
101.93648 0.20272
101.95450 0.20276
101.98557 0.20267
102.00358 0.20271
102.03467 0.20262
102.05267 0.20266
102.08376 0.20257
102.10176 0.20261
102.13286 0.20252
102.15085 0.20256
102.18195 0.20247
102.19993 0.20251
102.23105 0.20242
102.24903 0.20246
102.28015 0.20237
102.29812 0.20240
102.32925 0.20231
102.34720 0.20235
102.37834 0.20226
102.39629 0.20230
102.42744 0.20221
102.44537 0.20225
102.47652 0.20216
102.49445 0.20220
102.52562 0.20211
102.54355 0.20215
102.57472 0.20206
102.59264 0.20210
102.62382 0.20201
102.64172 0.20205
102.67290 0.20196
102.69081 0.20199
102.72200 0.20191
102.73990 0.20194
102.77110 0.20185
102.78899 0.20189
102.82020 0.20180
102.83808 0.20184
102.86929 0.20175
102.88716 0.20179
102.91839 0.20170
102.93625 0.20174
102.96748 0.20165
102.98533 0.20169
103.01657 0.20160
103.03442 0.20163
103.06567 0.20155
103.08351 0.20159
103.11476 0.20150
103.13259 0.20153
103.16385 0.20144
103.18168 0.20148
103.21295 0.20139
103.23077 0.20143
103.26205 0.20134
103.27986 0.20138
103.31115 0.20129
103.32895 0.20133
103.36024 0.20124
103.37804 0.20128
103.40935 0.20119
103.42712 0.20123
103.45843 0.20114
103.47622 0.20117
103.50754 0.20109
103.52529 0.20112
103.55662 0.20104
103.57438 0.20107
103.60571 0.20098
103.62347 0.20102
103.65482 0.20093
103.67256 0.20097
103.70391 0.20088
103.72165 0.20092
103.75301 0.20083
103.77073 0.20087
103.80210 0.20078
103.81982 0.20082
103.85119 0.20073
103.86891 0.20076
103.90029 0.20068
103.91799 0.20071
103.94938 0.20062
103.96709 0.20066
103.99849 0.20057
104.01617 0.20061
104.04758 0.20052
104.06525 0.20056
104.09667 0.20047
104.11434 0.20051
104.14576 0.20042
104.16344 0.20046
104.19487 0.20037
104.21252 0.20041
104.24396 0.20032
104.26160 0.20036
104.29305 0.20027
104.31070 0.20031
104.34215 0.20022
104.35978 0.20025
104.39125 0.20017
104.40887 0.20020
104.44035 0.20012
104.45796 0.20015
104.48944 0.20006
104.50704 0.20010
104.53853 0.20001
104.55613 0.20005
104.58763 0.19996
104.60522 0.20000
104.63672 0.19991
104.65431 0.19995
104.68582 0.19986
104.70339 0.19989
104.73492 0.19981
104.75247 0.19984
104.78400 0.19976
104.80157 0.19979
104.83311 0.19970
104.85065 0.19974
104.88220 0.19965
104.89974 0.19969
104.93129 0.19960
104.94882 0.19964
104.98038 0.19955
104.99791 0.19959
105.02948 0.19950
105.04700 0.19954
105.07858 0.19945
105.09610 0.19948
105.12768 0.19940
105.14518 0.19944
105.17677 0.19935
105.19426 0.19938
105.22587 0.19930
105.24335 0.19933
105.27496 0.19924
105.29244 0.19928
105.32406 0.19919
105.34152 0.19923
105.37315 0.19914
105.39062 0.19918
105.42225 0.19909
105.43971 0.19913
105.47135 0.19904
105.48879 0.19908
105.52044 0.19899
105.53788 0.19903
105.56954 0.19894
105.58696 0.19897
105.61863 0.19889
105.63605 0.19892
105.66772 0.19883
105.68514 0.19887
105.71682 0.19878
105.73422 0.19882
105.76591 0.19873
105.78332 0.19877
105.81502 0.19868
105.83240 0.19872
105.86411 0.19863
105.88149 0.19867
105.91321 0.19858
105.93058 0.19861
105.96230 0.19853
105.97967 0.19857
106.01140 0.19848
106.02875 0.19851
106.06049 0.19843
106.07784 0.19846
106.10959 0.19837
106.12692 0.19841
106.15868 0.19832
106.17601 0.19836
106.20778 0.19827
106.22510 0.19831
106.25687 0.19822
106.27419 0.19826
106.30597 0.19817
106.32329 0.19821
106.35508 0.19812
106.37237 0.19816
106.40416 0.19807
106.42145 0.19810
106.45326 0.19802
106.47053 0.19805
106.50234 0.19796
106.51962 0.19800
106.55144 0.19791
106.56872 0.19795
106.60055 0.19786
106.61779 0.19790
106.64963 0.19781
106.66689 0.19785
106.69874 0.19776
106.71597 0.19780
106.74783 0.19771
106.76507 0.19775
106.79693 0.19766
106.81415 0.19769
106.84602 0.19761
106.86324 0.19764
106.89512 0.19755
106.91232 0.19759
106.94421 0.19750
106.96142 0.19754
106.99332 0.19745
107.01050 0.19749
107.04240 0.19740
107.05959 0.19744
107.09151 0.19735
107.10868 0.19739
107.14060 0.19730
107.15776 0.19734
107.18970 0.19725
107.20684 0.19729
107.23878 0.19720
107.25594 0.19723
107.28789 0.19715
107.30502 0.19718
107.33698 0.19709
107.35411 0.19713
107.38607 0.19704
107.40319 0.19708
107.43517 0.19699
107.45228 0.19703
107.48426 0.19694
107.50137 0.19698
107.53336 0.19689
107.55046 0.19692
107.58246 0.19684
107.59955 0.19687
107.63155 0.19679
107.64863 0.19682
107.68064 0.19674
107.69772 0.19677
107.72974 0.19668
107.74681 0.19672
107.77884 0.19663
107.79590 0.19667
107.82794 0.19658
107.84498 0.19662
107.87702 0.19653
107.89408 0.19657
107.92613 0.19648
107.94316 0.19652
107.97522 0.19643
107.99224 0.19646
108.02432 0.19638
108.04134 0.19641
108.07342 0.19633
108.09042 0.19636
108.12250 0.19628
108.13951 0.19631
108.17161 0.19623
108.18860 0.19626
108.22070 0.19617
108.23768 0.19621
108.26979 0.19612
108.28677 0.19616
108.31889 0.19607
108.33586 0.19611
108.36799 0.19602
108.38495 0.19606
108.41709 0.19597
108.43403 0.19601
108.46618 0.19592
108.48311 0.19595
108.51527 0.19587
108.53220 0.19590
108.56437 0.19581
108.58130 0.19585
108.61347 0.19576
108.63038 0.19580
108.66256 0.19571
108.67947 0.19575
108.71166 0.19566
108.72856 0.19570
108.76076 0.19561
108.77764 0.19565
108.80985 0.19556
108.82673 0.19559
108.85894 0.19551
108.87582 0.19554
108.90805 0.19546
108.92491 0.19549
108.95714 0.19541
108.97399 0.19544
109.00623 0.19535
109.02308 0.19539
109.05532 0.19530
109.07217 0.19534
109.10443 0.19525
109.12126 0.19529
109.15352 0.19520
109.17034 0.19523
109.20262 0.19515
109.21943 0.19518
109.25172 0.19510
109.26852 0.19513
109.30081 0.19505
109.31762 0.19508
109.34991 0.19500
109.36669 0.19503
109.39900 0.19494
109.41578 0.19498
109.44810 0.19489
109.46487 0.19493
109.49719 0.19484
109.51396 0.19488
109.54629 0.19479
109.56304 0.19483
109.59539 0.19474
109.61213 0.19478
109.64448 0.19469
109.66122 0.19473
109.69357 0.19464
109.71031 0.19467
109.74268 0.19459
109.75939 0.19462
109.79176 0.19454
109.80849 0.19457
109.84087 0.19448
109.85756 0.19452
109.88996 0.19443
109.90666 0.19447
109.93906 0.19438
109.95574 0.19442
109.98815 0.19433
110.00484 0.19437
110.03725 0.19428
110.05391 0.19431
110.08634 0.19423
110.10300 0.19427
110.13544 0.19418
110.15209 0.19421
110.18453 0.19413
110.20118 0.19416
110.23363 0.19408
110.25027 0.19411
110.28273 0.19402
110.29936 0.19406
110.33183 0.19397
110.34843 0.19401
110.38091 0.19392
110.39753 0.19396
110.43001 0.19387
110.44662 0.19391
110.47911 0.19382
110.49571 0.19386
110.52821 0.19377
110.54479 0.19380
110.57730 0.19372
110.59389 0.19375
110.62641 0.19367
110.64296 0.19370
110.67549 0.19361
110.69205 0.19365
110.72459 0.19356
110.74114 0.19360
110.77369 0.19351
110.79023 0.19355
110.82279 0.19346
110.83932 0.19350
110.87188 0.19341
110.88840 0.19345
110.92097 0.19336
110.93749 0.19339
110.97007 0.19331
110.98658 0.19334
111.01917 0.19326
111.03567 0.19329
111.06827 0.19321
111.08475 0.19324
111.11736 0.19316
111.13384 0.19319
111.16646 0.19310
111.18293 0.19314
111.21555 0.19305
111.23201 0.19309
111.26464 0.19300
111.28111 0.19304
111.31375 0.19295
111.33019 0.19299
111.36284 0.19290
111.37928 0.19293
111.41194 0.19285
111.42836 0.19288
111.46103 0.19280
111.47745 0.19283
111.51012 0.19275
111.52654 0.19278
111.55922 0.19269
111.57562 0.19273
111.60832 0.19264
111.62471 0.19268
111.65741 0.19259
111.67381 0.19263
111.70652 0.19254
111.72289 0.19257
111.75561 0.19249
111.77198 0.19252
111.80471 0.19244
111.82106 0.19247
111.85380 0.19239
111.87015 0.19242
111.90289 0.19233
111.91923 0.19237
111.95199 0.19228
111.96833 0.19232
112.00109 0.19223
112.01742 0.19227
112.05019 0.19218
112.06649 0.19222
112.09928 0.19213
112.11559 0.19217
112.14838 0.19208
112.16467 0.19212
112.19747 0.19203
112.21377 0.19206
112.24658 0.19198
112.26285 0.19201
112.29566 0.19193
112.31194 0.19196
112.34476 0.19188
112.36103 0.19191
112.39386 0.19182
112.41011 0.19186
112.44296 0.19177
112.45919 0.19181
112.49205 0.19172
112.50829 0.19176
112.54115 0.19167
112.55737 0.19170
112.59024 0.19162
112.60646 0.19165
112.63934 0.19157
112.65554 0.19160
112.68843 0.19152
112.70464 0.19155
112.73753 0.19147
112.75372 0.19150
112.78662 0.19141
112.80281 0.19145
112.83572 0.19136
112.85189 0.19140
112.88482 0.19131
112.90098 0.19135
112.93391 0.19126
112.95007 0.19129
112.98301 0.19121
112.99916 0.19124
113.03211 0.19116
113.04825 0.19119
113.08121 0.19111
113.09734 0.19114
113.13030 0.19106
113.14643 0.19109
113.17940 0.19100
113.19550 0.19104
113.22849 0.19095
113.24459 0.19099
113.27758 0.19090
113.29368 0.19094
113.32668 0.19085
113.34277 0.19089
113.37578 0.19080
113.39186 0.19084
113.42487 0.19075
113.44094 0.19078
113.47397 0.19070
113.49003 0.19073
113.52306 0.19065
113.53913 0.19068
113.57217 0.19060
113.58821 0.19063
113.62126 0.19055
113.63730 0.19058
113.67036 0.19049
113.68639 0.19053
113.71946 0.19044
113.73547 0.19048
113.76855 0.19039
113.78457 0.19043
113.81766 0.19034
113.83366 0.19037
113.86675 0.19029
113.88273 0.19032
113.91584 0.19024
113.93181 0.19027
113.96493 0.19019
113.98091 0.19022
114.01404 0.19014
114.03000 0.19017
114.06314 0.19008
114.07909 0.19012
114.11223 0.19003
114.12817 0.19007
114.16133 0.18998
114.17726 0.19002
114.21042 0.18993
114.22635 0.18996
114.25952 0.18988
114.27543 0.18991
114.30861 0.18983
114.32451 0.18986
114.35770 0.18978
114.37361 0.18981
114.40680 0.18973
114.42270 0.18976
114.45591 0.18968
114.47179 0.18971
114.50500 0.18962
114.52088 0.18966
114.55410 0.18957
114.56996 0.18961
114.60319 0.18952
114.61904 0.18956
114.65228 0.18947
114.66813 0.18950
114.70138 0.18942
114.71722 0.18945
114.75048 0.18937
114.76631 0.18940
114.79958 0.18932
114.81539 0.18935
114.84867 0.18927
114.86448 0.18930
114.89777 0.18921
114.91357 0.18925
114.94687 0.18916
114.96265 0.18920
114.99596 0.18911
115.01175 0.18915
115.04506 0.18906
115.06083 0.18909
115.09415 0.18901
115.10991 0.18904
115.14325 0.18896
115.15901 0.18899
115.19235 0.18891
115.20810 0.18894
115.24145 0.18886
115.25718 0.18889
115.29054 0.18880
115.30626 0.18884
115.33963 0.18875
115.35536 0.18879
115.38874 0.18870
115.40444 0.18874
115.43783 0.18865
115.45353 0.18869
115.48692 0.18860
115.50262 0.18863
115.53603 0.18855
115.55170 0.18858
115.58511 0.18850
115.60080 0.18853
115.63422 0.18845
115.64987 0.18848
115.68330 0.18840
115.69896 0.18843
115.73241 0.18834
115.74805 0.18838
115.78150 0.18829
115.79714 0.18833
115.83060 0.18824
115.84623 0.18827
115.87969 0.18819
115.89532 0.18822
115.92880 0.18814
115.94440 0.18817
115.97789 0.18809
115.99349 0.18812
116.02699 0.18804
116.04258 0.18807
116.07608 0.18799
116.09167 0.18802
116.12518 0.18794
116.14075 0.18797
116.17427 0.18788
116.18984 0.18792
116.22338 0.18783
116.23893 0.18787
116.27247 0.18778
116.28802 0.18782
116.32157 0.18773
116.33711 0.18776
116.37067 0.18768
116.38619 0.18771
116.41976 0.18763
116.43529 0.18766
116.46886 0.18758
116.48437 0.18761
116.51796 0.18753
116.53345 0.18756
116.56704 0.18748
116.58254 0.18751
116.61615 0.18742
116.63162 0.18746
116.66523 0.18737
116.68071 0.18741
116.71434 0.18732
116.72980 0.18735
116.76343 0.18727
116.77888 0.18730
116.81252 0.18722
116.82798 0.18725
116.86163 0.18717
116.87706 0.18720
116.91072 0.18712
116.92616 0.18715
116.95983 0.18707
116.97523 0.18710
117.00891 0.18701
117.02433 0.18705
117.05801 0.18696
117.07342 0.18700
117.10712 0.18691
117.12249 0.18694
117.15620 0.18686
117.17158 0.18689
117.20529 0.18681
117.22067 0.18684
117.25440 0.18676
117.26976 0.18679
117.30349 0.18671
117.31884 0.18674
117.35258 0.18666
117.36793 0.18669
117.40168 0.18661
117.41703 0.18664
117.45079 0.18655
117.46612 0.18659
117.49989 0.18650
117.51520 0.18654
117.54898 0.18645
117.56428 0.18648
117.59807 0.18640
117.61338 0.18643
117.64718 0.18635
117.66246 0.18638
117.69627 0.18630
117.71155 0.18633
117.74537 0.18625
117.76063 0.18628
117.79446 0.18620
117.80972 0.18623
117.84356 0.18615
117.85881 0.18618
117.89265 0.18609
117.90791 0.18613
117.94176 0.18604
117.95699 0.18607
117.99086 0.18599
118.00607 0.18602
118.03995 0.18594
118.05516 0.18597
118.08904 0.18589
118.10424 0.18592
118.13814 0.18584
118.15334 0.18587
118.18724 0.18579
118.20241 0.18582
118.23632 0.18574
118.25152 0.18577
118.28543 0.18568
118.30059 0.18572
118.33452 0.18563
118.34968 0.18567
118.38362 0.18558
118.39878 0.18561
118.43272 0.18553
118.44786 0.18556
118.48182 0.18548
118.49694 0.18551
118.53091 0.18543
118.54604 0.18546
118.58002 0.18538
118.59512 0.18541
118.62911 0.18532
118.64421 0.18536
118.67820 0.18527
118.69329 0.18531
118.72730 0.18522
118.74239 0.18526
118.77640 0.18517
118.79147 0.18520
118.82549 0.18512
118.84056 0.18515
118.87459 0.18507
118.88965 0.18510
118.92370 0.18502
118.93874 0.18505
118.97279 0.18497
118.98782 0.18500
119.02188 0.18492
119.03691 0.18495
119.07098 0.18487
119.08600 0.18490
119.12008 0.18481
119.13509 0.18485
119.16918 0.18476
119.18417 0.18480
119.21827 0.18471
119.23325 0.18474
119.26736 0.18466
119.28235 0.18469
119.31646 0.18461
119.33144 0.18464
119.36556 0.18456
119.38052 0.18459
119.41466 0.18451
119.42962 0.18454
119.46376 0.18446
119.47870 0.18449
119.51286 0.18441
119.52778 0.18444
119.56194 0.18435
119.57688 0.18438
119.61105 0.18430
119.62596 0.18433
119.66014 0.18425
119.67504 0.18428
119.70923 0.18420
119.72413 0.18423
119.75833 0.18415
119.77323 0.18418
119.80744 0.18410
119.82230 0.18413
119.85652 0.18405
119.87139 0.18408
119.90562 0.18400
119.92049 0.18403
119.95473 0.18394
119.96957 0.18398
120.00382 0.18389
120.01866 0.18392
120.05292 0.18384
120.06774 0.18387
120.10201 0.18379
120.11684 0.18382
120.15112 0.18374
120.16592 0.18377
120.20021 0.18369
120.21500 0.18372
120.24930 0.18364
120.26409 0.18367
120.29840 0.18359
120.31318 0.18362
120.34750 0.18354
120.36227 0.18357
120.39659 0.18348
120.41135 0.18351
120.44569 0.18343
120.46045 0.18346
120.49479 0.18338
120.50953 0.18341
120.54389 0.18333
120.55862 0.18336
120.59298 0.18328
120.60770 0.18331
120.64208 0.18323
120.65679 0.18326
120.69118 0.18318
120.70588 0.18321
120.74027 0.18313
120.75496 0.18316
120.78936 0.18308
120.80406 0.18311
120.83847 0.18302
120.85314 0.18306
120.88757 0.18297
120.90222 0.18300
120.93666 0.18292
120.95132 0.18295
120.98576 0.18287
121.00040 0.18290
121.03485 0.18282
121.04950 0.18285
121.08396 0.18277
121.09858 0.18280
121.13305 0.18272
121.14766 0.18275
121.18215 0.18267
121.19676 0.18270
121.23125 0.18261
121.24583 0.18265
121.28033 0.18256
121.29492 0.18259
121.32943 0.18251
121.34402 0.18254
121.37854 0.18246
121.39311 0.18249
121.42764 0.18241
121.44219 0.18244
121.47672 0.18236
121.49127 0.18239
121.52582 0.18231
121.54036 0.18234
121.57492 0.18226
121.58944 0.18229
121.62401 0.18221
121.63853 0.18224
121.67311 0.18215
121.68762 0.18218
121.72221 0.18210
121.73672 0.18213
121.77131 0.18205
121.78580 0.18208
121.82041 0.18200
121.83489 0.18203
121.86950 0.18195
121.88398 0.18198
121.91860 0.18190
121.93307 0.18193
121.96770 0.18185
121.98215 0.18188
122.01679 0.18180
122.03125 0.18183
122.06590 0.18175
122.08032 0.18178
122.11499 0.18169
122.12942 0.18172
122.16409 0.18164
122.17849 0.18167
122.21318 0.18159
122.22759 0.18162
122.26229 0.18154
122.27667 0.18157
122.31138 0.18149
122.32577 0.18152
122.36048 0.18144
122.37485 0.18147
122.40957 0.18139
122.42394 0.18142
122.45867 0.18133
122.47303 0.18137
122.50777 0.18128
122.52211 0.18131
122.55687 0.18123
122.57121 0.18126
122.60597 0.18118
122.62029 0.18121
122.65507 0.18113
122.66938 0.18116
122.70416 0.18108
122.71847 0.18111
122.75326 0.18103
122.76755 0.18106
122.80235 0.18098
122.81663 0.18101
122.85144 0.18092
122.86573 0.18096
122.90055 0.18087
122.91482 0.18090
122.94965 0.18082
122.96391 0.18085
122.99875 0.18077
123.01299 0.18080
123.04784 0.18072
123.06207 0.18075
123.09693 0.18067
123.11116 0.18070
123.14603 0.18062
123.16025 0.18065
123.19514 0.18057
123.20933 0.18060
123.24422 0.18052
123.25842 0.18055
123.29332 0.18046
123.30751 0.18049
123.34242 0.18041
123.35660 0.18044
123.39152 0.18036
123.40568 0.18039
123.44061 0.18031
123.45477 0.18034
123.48971 0.18026
123.50386 0.18029
123.53881 0.18021
123.55295 0.18024
123.58791 0.18016
123.60204 0.18019
123.63701 0.18011
123.65113 0.18014
123.68611 0.18006
123.70021 0.18008
123.73520 0.18001
123.74929 0.18004
123.78429 0.17995
123.79839 0.17998
123.83340 0.17990
123.84748 0.17993
123.88250 0.17985
123.89655 0.17988
123.93158 0.17980
123.94564 0.17983
123.98068 0.17975
123.99474 0.17978
124.02979 0.17970
124.04382 0.17973
124.07888 0.17965
124.09291 0.17968
124.12798 0.17960
124.14200 0.17962
124.17708 0.17954
124.19109 0.17957
124.22618 0.17949
124.24017 0.17952
124.27527 0.17944
124.28926 0.17947
124.32437 0.17939
124.33835 0.17942
124.37347 0.17934
124.38744 0.17937
124.42257 0.17929
124.43652 0.17932
124.47166 0.17924
124.48562 0.17927
124.52077 0.17919
124.53470 0.17921
124.56986 0.17913
124.58379 0.17916
124.61896 0.17908
124.63287 0.17912
124.66805 0.17903
124.68195 0.17906
124.71714 0.17898
124.73105 0.17901
124.76625 0.17893
124.78012 0.17896
124.81533 0.17888
124.82922 0.17891
124.86444 0.17883
124.87831 0.17886
124.91354 0.17878
124.92740 0.17880
124.96264 0.17872
124.97648 0.17875
125.01173 0.17867
125.02557 0.17870
125.06083 0.17862
125.07466 0.17865
125.10993 0.17857
125.12374 0.17860
125.15902 0.17852
125.17284 0.17855
125.20813 0.17847
125.22192 0.17850
125.25722 0.17842
125.27101 0.17845
125.30632 0.17837
125.32010 0.17840
125.35542 0.17832
125.36919 0.17835
125.40452 0.17827
125.41827 0.17829
125.45361 0.17821
125.46736 0.17824
125.50271 0.17816
125.51645 0.17819
125.55181 0.17811
125.56553 0.17814
125.60091 0.17806
125.61462 0.17809
125.65000 0.17801
125.66371 0.17804
125.69910 0.17796
125.71280 0.17799
125.74820 0.17791
125.76189 0.17793
125.79730 0.17786
125.81097 0.17788
125.84639 0.17780
125.86006 0.17783
125.89549 0.17775
125.90914 0.17778
125.94458 0.17770
125.95824 0.17773
125.99369 0.17765
126.00732 0.17768
126.04279 0.17760
126.05641 0.17763
126.09188 0.17755
126.10550 0.17758
126.14098 0.17750
126.15458 0.17753
126.19008 0.17745
126.20366 0.17748
126.23916 0.17740
126.25274 0.17742
126.28826 0.17734
126.30184 0.17737
126.33736 0.17729
126.35093 0.17732
126.38647 0.17724
126.40002 0.17727
126.43556 0.17719
126.44910 0.17722
126.48466 0.17714
126.49819 0.17717
126.53376 0.17709
126.54728 0.17711
126.58286 0.17704
126.59636 0.17706
126.63195 0.17698
126.64545 0.17701
126.68105 0.17693
126.69453 0.17696
126.73014 0.17688
126.74363 0.17691
126.77924 0.17683
126.79271 0.17686
126.82834 0.17678
126.84180 0.17681
126.87744 0.17673
126.89090 0.17676
126.92654 0.17668
126.93998 0.17671
126.97564 0.17663
126.98906 0.17666
127.02473 0.17658
127.03815 0.17661
127.07383 0.17653
127.08724 0.17655
127.12293 0.17647
127.13633 0.17650
127.17203 0.17642
127.18541 0.17645
127.22112 0.17637
127.23450 0.17640
127.27022 0.17632
127.28359 0.17635
127.31932 0.17627
127.33268 0.17630
127.36842 0.17622
127.38177 0.17625
127.41752 0.17617
127.43085 0.17619
127.46661 0.17612
127.47994 0.17614
127.51571 0.17606
127.52903 0.17609
127.56482 0.17601
127.57812 0.17604
127.61392 0.17596
127.62721 0.17599
127.66301 0.17591
127.67630 0.17594
127.71211 0.17586
127.72538 0.17589
127.76121 0.17581
127.77447 0.17584
127.81031 0.17576
127.82356 0.17579
127.85940 0.17571
127.87263 0.17573
127.90849 0.17566
127.92173 0.17568
127.95759 0.17561
127.97081 0.17563
128.00669 0.17555
128.01990 0.17558
128.05579 0.17550
128.06899 0.17553
128.10489 0.17545
128.11808 0.17548
128.15399 0.17540
128.16717 0.17543
128.20309 0.17535
128.21626 0.17538
128.25219 0.17530
128.26534 0.17532
128.30128 0.17525
128.31442 0.17527
128.35037 0.17520
128.36352 0.17522
128.39948 0.17514
128.41260 0.17517
128.44857 0.17509
128.46169 0.17512
128.49767 0.17504
128.51078 0.17507
128.54677 0.17499
128.55987 0.17502
128.59587 0.17494
128.60896 0.17497
128.64497 0.17489
128.65803 0.17492
128.69406 0.17484
128.70713 0.17486
128.74316 0.17478
128.75621 0.17481
128.79226 0.17473
128.80530 0.17476
128.84136 0.17468
128.85438 0.17471
128.89044 0.17463
128.90348 0.17466
128.93955 0.17458
128.95255 0.17461
128.98864 0.17453
129.00165 0.17456
129.03775 0.17448
129.05074 0.17451
129.08685 0.17443
129.09983 0.17446
129.13595 0.17438
129.14890 0.17440
129.18503 0.17433
129.19800 0.17435
129.23414 0.17427
129.24708 0.17430
129.28323 0.17422
129.29616 0.17425
129.33232 0.17417
129.34527 0.17420
129.38144 0.17412
129.39435 0.17415
129.43053 0.17407
129.44344 0.17410
129.47964 0.17402
129.49252 0.17405
129.52873 0.17397
129.54161 0.17399
129.57782 0.17391
129.59070 0.17394
129.62692 0.17386
129.63978 0.17389
129.67601 0.17382
129.68887 0.17384
129.72512 0.17376
129.73797 0.17379
129.77422 0.17371
129.78706 0.17374
129.82333 0.17366
129.83613 0.17369
129.87241 0.17361
129.88522 0.17364
129.92151 0.17356
129.93430 0.17358
129.97061 0.17351
129.98340 0.17353
130.01971 0.17346
130.03248 0.17348
130.06880 0.17340
130.08158 0.17343
130.11791 0.17335
130.13066 0.17338
130.16700 0.17330
130.17974 0.17333
130.21610 0.17325
130.22884 0.17328
130.26521 0.17320
130.27792 0.17323
130.31430 0.17315
130.32700 0.17318
130.36339 0.17310
130.37610 0.17312
130.41249 0.17305
130.42518 0.17307
130.46159 0.17300
130.47427 0.17302
130.51069 0.17294
130.52335 0.17297
130.55978 0.17289
130.57244 0.17292
130.60888 0.17284
130.62152 0.17287
130.65798 0.17279
130.67062 0.17282
130.70709 0.17274
130.71971 0.17277
130.75618 0.17269
130.76880 0.17271
130.80529 0.17264
130.81788 0.17266
130.85438 0.17259
130.86696 0.17261
130.90347 0.17253
130.91606 0.17256
130.95257 0.17248
130.96515 0.17251
131.00168 0.17243
131.01423 0.17246
131.05077 0.17238
131.06332 0.17241
131.09987 0.17233
131.11240 0.17236
131.14896 0.17228
131.16149 0.17231
131.19806 0.17223
131.21059 0.17225
131.24717 0.17218
131.25967 0.17220
131.29626 0.17213
131.30875 0.17215
131.34535 0.17207
131.35783 0.17210
131.39445 0.17202
131.40692 0.17205
131.44355 0.17197
131.45602 0.17200
131.49266 0.17192
131.50510 0.17195
131.54174 0.17187
131.55419 0.17190
131.59085 0.17182
131.60327 0.17185
131.63994 0.17177
131.65237 0.17179
131.68905 0.17172
131.70145 0.17174
131.73814 0.17166
131.75055 0.17169
131.78725 0.17161
131.79963 0.17164
131.83634 0.17156
131.84872 0.17159
131.88544 0.17151
131.89781 0.17154
131.93454 0.17146
131.94689 0.17149
131.98364 0.17141
131.99597 0.17143
132.03273 0.17136
132.04507 0.17139
132.08183 0.17131
132.09416 0.17133
132.13093 0.17126
132.14324 0.17128
132.18003 0.17120
132.19233 0.17123
132.22913 0.17115
132.24142 0.17118
132.27823 0.17110
132.29050 0.17113
132.32732 0.17105
132.33960 0.17108
132.37643 0.17100
132.38868 0.17103
132.42553 0.17095
132.43777 0.17097
132.47462 0.17090
132.48686 0.17092
132.52373 0.17085
132.53594 0.17087
132.57282 0.17079
132.58503 0.17082
132.62191 0.17074
132.63411 0.17077
132.67101 0.17069
132.68320 0.17072
132.72011 0.17064
132.73229 0.17067
132.76921 0.17059
132.78138 0.17062
132.81832 0.17054
132.83047 0.17057
132.86741 0.17049
132.87956 0.17051
132.91651 0.17044
132.92863 0.17046
132.96560 0.17039
132.97773 0.17041
133.01471 0.17033
133.02682 0.17036
133.06381 0.17028
133.07590 0.17031
133.11290 0.17023
133.12499 0.17026
133.16200 0.17018
133.17408 0.17021
133.21110 0.17013
133.22317 0.17016
133.26021 0.17008
133.27226 0.17010
133.30930 0.17003
133.32134 0.17005
133.35839 0.16998
133.37042 0.17000
133.40749 0.16993
133.41952 0.16995
133.45660 0.16987
133.46859 0.16990
133.50568 0.16982
133.51769 0.16985
133.55479 0.16977
133.56678 0.16980
133.60389 0.16972
133.61586 0.16975
133.65299 0.16967
133.66496 0.16969
133.70209 0.16962
133.71405 0.16964
133.75119 0.16957
133.76313 0.16959
133.80029 0.16952
133.81221 0.16954
133.84938 0.16946
133.86130 0.16949
133.89848 0.16941
133.91040 0.16944
133.94759 0.16936
133.95947 0.16939
133.99667 0.16931
134.00856 0.16934
134.04577 0.16926
134.05766 0.16928
134.09488 0.16921
134.10673 0.16923
134.14397 0.16916
134.15582 0.16918
134.19307 0.16911
134.20491 0.16913
134.24216 0.16905
134.25401 0.16908
134.29128 0.16900
134.30309 0.16903
134.34037 0.16895
134.35217 0.16898
134.38946 0.16890
134.40126 0.16893
134.43857 0.16885
134.45035 0.16888
134.48766 0.16880
134.49944 0.16883
134.53676 0.16875
134.54852 0.16877
134.58586 0.16870
134.59761 0.16872
134.63496 0.16865
134.64670 0.16867
134.68405 0.16859
134.69578 0.16862
134.73315 0.16854
134.74488 0.16857
134.78226 0.16849
134.79395 0.16852
134.83134 0.16844
134.84304 0.16846
134.88045 0.16839
134.89213 0.16842
134.92954 0.16834
134.94121 0.16836
134.97864 0.16829
134.99031 0.16831
135.02775 0.16824
135.03940 0.16826
135.07685 0.16819
135.08848 0.16821
135.12595 0.16813
135.13756 0.16816
135.17504 0.16808
135.18666 0.16811
135.22414 0.16803
135.23574 0.16806
135.27324 0.16798
135.28483 0.16800
135.32234 0.16793
135.33391 0.16795
135.37143 0.16788
135.38301 0.16790
135.42054 0.16783
135.43211 0.16785
135.46965 0.16778
135.48119 0.16780
135.51874 0.16773
135.53027 0.16775
135.56783 0.16767
135.57936 0.16770
135.61694 0.16762
135.62845 0.16765
135.66603 0.16757
135.67753 0.16759
135.71513 0.16752
135.72662 0.16755
135.76423 0.16747
135.77570 0.16749
135.81332 0.16742
135.82480 0.16744
135.86244 0.16737
135.87388 0.16739
135.91153 0.16732
135.92296 0.16734
135.96062 0.16727
135.97206 0.16729
136.00973 0.16721
136.02115 0.16724
136.05883 0.16716
136.07023 0.16719
136.10792 0.16711
136.11931 0.16714
136.15702 0.16706
136.16840 0.16708
136.20612 0.16701
136.21749 0.16703
136.25521 0.16696
136.26658 0.16698
136.30432 0.16691
136.31567 0.16693
136.35342 0.16685
136.36475 0.16688
136.40251 0.16680
136.41383 0.16683
136.45161 0.16675
136.46293 0.16678
136.50072 0.16670
136.51202 0.16673
136.54982 0.16665
136.56111 0.16668
136.59892 0.16660
136.61020 0.16662
136.64802 0.16655
136.65928 0.16657
136.69711 0.16650
136.70837 0.16652
136.74621 0.16645
136.75746 0.16647
136.79531 0.16639
136.80654 0.16642
136.84441 0.16634
136.85564 0.16637
136.89351 0.16629
136.90472 0.16631
136.94261 0.16624
136.95380 0.16627
136.99170 0.16619
137.00288 0.16621
137.04079 0.16614
137.05198 0.16616
137.08991 0.16609
137.10107 0.16611
137.13901 0.16604
137.15015 0.16606
137.18810 0.16599
137.19925 0.16601
137.23721 0.16593
137.24833 0.16596
137.28630 0.16588
137.29742 0.16591
137.33540 0.16583
137.34650 0.16585
137.38449 0.16578
137.39558 0.16580
137.43359 0.16573
137.44468 0.16575
137.48270 0.16568
137.49376 0.16570
137.53179 0.16563
137.54286 0.16565
137.58090 0.16558
137.59194 0.16560
137.62999 0.16553
137.64103 0.16555
137.67909 0.16547
137.69012 0.16550
137.72820 0.16542
137.73920 0.16545
137.77729 0.16537
137.78829 0.16539
137.82639 0.16532
137.83738 0.16534
137.87549 0.16527
137.88646 0.16529
137.92458 0.16522
137.93555 0.16524
137.97368 0.16517
137.98464 0.16519
138.02279 0.16512
138.03372 0.16514
138.07188 0.16507
138.08282 0.16509
138.12098 0.16501
138.13191 0.16504
138.17009 0.16496
138.18099 0.16498
138.21918 0.16491
138.23008 0.16493
138.26828 0.16486
138.27916 0.16488
138.31737 0.16481
138.32825 0.16483
138.36648 0.16476
138.37735 0.16478
138.41559 0.16471
138.42642 0.16473
138.46468 0.16466
138.47552 0.16468
138.51378 0.16460
138.52460 0.16463
138.56288 0.16455
138.57369 0.16458
138.61197 0.16450
138.62279 0.16452
138.66109 0.16445
138.67186 0.16447
138.71017 0.16440
138.72096 0.16442
138.75928 0.16435
138.77005 0.16437
138.80839 0.16430
138.81912 0.16432
138.85746 0.16425
138.86822 0.16427
138.90658 0.16420
138.91731 0.16422
138.95568 0.16414
138.96638 0.16417
139.00476 0.16409
139.01547 0.16411
139.05387 0.16404
139.06457 0.16406
139.10298 0.16399
139.11366 0.16401
139.15208 0.16394
139.16274 0.16396
139.20117 0.16389
139.21183 0.16391
139.25027 0.16384
139.26091 0.16386
139.29937 0.16379
139.30999 0.16381
139.34846 0.16373
139.35909 0.16376
139.39757 0.16368
139.40817 0.16371
139.44667 0.16363
139.45726 0.16366
139.49576 0.16358
139.50634 0.16360
139.54486 0.16353
139.55543 0.16355
139.59396 0.16348
139.60453 0.16350
139.64307 0.16343
139.65360 0.16345
139.69216 0.16338
139.70271 0.16340
139.74127 0.16333
139.75179 0.16335
139.79037 0.16327
139.80087 0.16330
139.83946 0.16322
139.84996 0.16324
139.88856 0.16317
139.89905 0.16319
139.93766 0.16312
139.94813 0.16314
139.98675 0.16307
139.99723 0.16309
140.03586 0.16302
140.04630 0.16304
140.08495 0.16297
140.09540 0.16299
140.13406 0.16292
140.14448 0.16294
140.18315 0.16287
140.19358 0.16289
140.23226 0.16281
140.24266 0.16284
140.28136 0.16276
140.29176 0.16278
140.33047 0.16271
140.34083 0.16273
140.37956 0.16266
140.38992 0.16268
140.42865 0.16261
140.43900 0.16263
140.47775 0.16256
140.48810 0.16258
140.52686 0.16251
140.53719 0.16253
140.57596 0.16246
140.58627 0.16248
140.62505 0.16240
140.63536 0.16243
140.67415 0.16235
140.68445 0.16237
140.72326 0.16230
140.73353 0.16232
140.77235 0.16225
140.78262 0.16227
140.82145 0.16220
140.83170 0.16222
140.87055 0.16215
140.88079 0.16217
140.91965 0.16210
140.92988 0.16212
140.96875 0.16205
140.97897 0.16207
141.01786 0.16200
141.02805 0.16202
141.06694 0.16194
141.07714 0.16196
141.11604 0.16189
141.12624 0.16191
141.16516 0.16184
141.17532 0.16186
141.21425 0.16179
141.22441 0.16181
141.26336 0.16174
141.27350 0.16176
141.31246 0.16169
141.32258 0.16171
141.36155 0.16164
141.37167 0.16166
141.41065 0.16159
141.42075 0.16161
141.45974 0.16154
141.46984 0.16156
141.50885 0.16148
141.51893 0.16150
141.55795 0.16143
141.56801 0.16145
141.60704 0.16138
141.61711 0.16140
141.65615 0.16133
141.66619 0.16135
141.70524 0.16128
141.71528 0.16130
141.75435 0.16123
141.76438 0.16125
141.80346 0.16118
141.81346 0.16120
141.85255 0.16113
141.86253 0.16115
141.90164 0.16107
141.91164 0.16109
141.95075 0.16102
141.96072 0.16104
141.99985 0.16097
142.00980 0.16099
142.04894 0.16092
142.05890 0.16094
142.09805 0.16087
142.10798 0.16089
142.14715 0.16082
142.15707 0.16084
142.19625 0.16077
142.20615 0.16079
142.24534 0.16072
142.25524 0.16074
142.29444 0.16067
142.30434 0.16069
142.34356 0.16061
142.35342 0.16063
142.39265 0.16056
142.40251 0.16058
142.44175 0.16051
142.45159 0.16053
142.49084 0.16046
142.50069 0.16048
142.53995 0.16041
142.54977 0.16043
142.58904 0.16036
142.59886 0.16038
142.63815 0.16031
142.64794 0.16033
142.68724 0.16025
142.69703 0.16027
142.73635 0.16020
142.74612 0.16023
142.78545 0.16015
142.79520 0.16017
142.83455 0.16010
142.84430 0.16012
142.88365 0.16005
142.89339 0.16007
142.93275 0.16000
142.94247 0.16002
142.98184 0.15995
142.99156 0.15997
143.03095 0.15990
143.04064 0.15992
143.08004 0.15985
143.08973 0.15987
143.12915 0.15979
143.13882 0.15981
143.17825 0.15974
143.18791 0.15977
143.22735 0.15969
143.23699 0.15971
143.27644 0.15964
143.28609 0.15966
143.32555 0.15959
143.33517 0.15961
143.37465 0.15954
143.38425 0.15956
143.42374 0.15949
143.43334 0.15951
143.47284 0.15944
143.48244 0.15946
143.52196 0.15939
143.53152 0.15941
143.57105 0.15933
143.58061 0.15935
143.62015 0.15928
143.62969 0.15930
143.66925 0.15923
143.67878 0.15925
143.71835 0.15918
143.72786 0.15920
143.76745 0.15913
143.77695 0.15915
143.81655 0.15908
143.82604 0.15910
143.86564 0.15903
143.87512 0.15905
143.91474 0.15897
143.92422 0.15899
143.96385 0.15893
143.97330 0.15895
144.01295 0.15887
144.02239 0.15889
144.06205 0.15882
144.07148 0.15884
144.11115 0.15877
144.12057 0.15879
144.16025 0.15872
144.16965 0.15874
144.20935 0.15867
144.21873 0.15869
144.25844 0.15862
144.26782 0.15864
144.30754 0.15857
144.31691 0.15859
144.35665 0.15852
144.36600 0.15854
144.40574 0.15846
144.41510 0.15848
144.45486 0.15841
144.46417 0.15843
144.50395 0.15836
144.51326 0.15838
144.55305 0.15831
144.56234 0.15833
144.60214 0.15826
144.61143 0.15828
144.65125 0.15821
144.66051 0.15823
144.70034 0.15816
144.70960 0.15818
144.74944 0.15811
144.75869 0.15812
144.79855 0.15806
144.80778 0.15808
144.84764 0.15801
144.85688 0.15803
144.89676 0.15795
144.90597 0.15797
144.94585 0.15790
144.95505 0.15792
144.99496 0.15785
145.00413 0.15787
145.04404 0.15780
145.05322 0.15782
145.09315 0.15775
145.10232 0.15777
145.14226 0.15770
145.15139 0.15772
145.19135 0.15765
145.20049 0.15767
145.24045 0.15759
145.24957 0.15761
145.28955 0.15754
145.29866 0.15756
145.33865 0.15749
145.34775 0.15751
145.38776 0.15744
145.39683 0.15746
145.43685 0.15739
145.44592 0.15741
145.48595 0.15734
145.49500 0.15736
145.53505 0.15729
145.54409 0.15731
145.58415 0.15724
145.59319 0.15726
145.63326 0.15719
145.64227 0.15721
145.68235 0.15713
145.69136 0.15715
145.73146 0.15708
145.74044 0.15710
145.78055 0.15703
145.78953 0.15705
145.82966 0.15698
145.83863 0.15700
145.87877 0.15693
145.88772 0.15695
145.92787 0.15688
145.93681 0.15690
145.97697 0.15683
145.98587 0.15685
146.02605 0.15678
146.03498 0.15679
146.07517 0.15673
146.08406 0.15674
146.12426 0.15667
146.13315 0.15669
146.17336 0.15662
146.18223 0.15664
146.22246 0.15657
146.23132 0.15659
146.27156 0.15652
146.28041 0.15654
146.32066 0.15647
146.32950 0.15649
146.36976 0.15642
146.37858 0.15644
146.41886 0.15637
146.42766 0.15638
146.46796 0.15632
146.47677 0.15633
146.51707 0.15626
146.52585 0.15628
146.56618 0.15621
146.57493 0.15623
146.61527 0.15616
146.62402 0.15618
146.66437 0.15611
146.67311 0.15613
146.71347 0.15606
146.72219 0.15608
146.76256 0.15601
146.77128 0.15603
146.81167 0.15596
146.82037 0.15598
146.86077 0.15591
146.86946 0.15593
146.90987 0.15586
146.91855 0.15587
146.95897 0.15580
146.96763 0.15582
147.00807 0.15575
147.01672 0.15577
147.05718 0.15570
147.06580 0.15572
147.10627 0.15565
147.11490 0.15567
147.15538 0.15560
147.16398 0.15562
147.20448 0.15555
147.21308 0.15557
147.25358 0.15550
147.26216 0.15552
147.30268 0.15545
147.31124 0.15547
147.35177 0.15540
147.36033 0.15541
147.40088 0.15534
147.40942 0.15536
147.44998 0.15529
147.45851 0.15531
147.49908 0.15524
147.50759 0.15526
147.54818 0.15519
147.55667 0.15521
147.59727 0.15514
147.60577 0.15516
147.64638 0.15509
147.65485 0.15511
147.69548 0.15504
147.70394 0.15505
147.74458 0.15499
147.75302 0.15500
147.79368 0.15494
147.80212 0.15495
147.84279 0.15488
147.85121 0.15490
147.89189 0.15483
147.90030 0.15485
147.94099 0.15478
147.94938 0.15480
147.99008 0.15473
147.99846 0.15475
148.03918 0.15468
148.04756 0.15470
148.08829 0.15463
148.09664 0.15464
148.13739 0.15458
148.14573 0.15459
148.18650 0.15453
148.19483 0.15454
148.23560 0.15447
148.24391 0.15449
148.28470 0.15442
148.29299 0.15444
148.33379 0.15437
148.34208 0.15439
148.38289 0.15432
148.39117 0.15434
148.43199 0.15427
148.44025 0.15429
148.48110 0.15422
148.48934 0.15424
148.53020 0.15417
148.53843 0.15418
148.57930 0.15412
148.58752 0.15413
148.62840 0.15406
148.63659 0.15408
148.67749 0.15401
148.68569 0.15403
148.72660 0.15396
148.73478 0.15398
148.77571 0.15391
148.78387 0.15393
148.82481 0.15386
148.83296 0.15388
148.87391 0.15381
148.88203 0.15383
148.92300 0.15376
148.93112 0.15377
148.97210 0.15371
148.98021 0.15372
149.02120 0.15366
149.02931 0.15367
149.07032 0.15361
149.07839 0.15362
149.11941 0.15355
149.12747 0.15357
149.16850 0.15350
149.17657 0.15352
149.21762 0.15345
149.22565 0.15347
149.26671 0.15340
149.27474 0.15342
149.31582 0.15335
149.32382 0.15337
149.36491 0.15330
149.37292 0.15331
149.41403 0.15325
149.42200 0.15326
149.46311 0.15319
149.47108 0.15321
149.51221 0.15314
149.52017 0.15316
149.56131 0.15309
149.56926 0.15311
149.61042 0.15304
149.61836 0.15306
149.65953 0.15299
149.66744 0.15301
149.70862 0.15294
149.71653 0.15296
149.75772 0.15289
149.76561 0.15290
149.80682 0.15284
149.81470 0.15285
149.85593 0.15279
149.86379 0.15280
149.90503 0.15273
149.91287 0.15275
149.95413 0.15269
149.96196 0.15270
150.00323 0.15263
150.01105 0.15265
150.05233 0.15258
150.06013 0.15260
150.10142 0.15253
150.10923 0.15255
150.15053 0.15248
150.15830 0.15250
150.19962 0.15243
150.20740 0.15244
150.24873 0.15238
150.25648 0.15239
150.29783 0.15233
150.30557 0.15234
150.34694 0.15227
150.35465 0.15229
150.39603 0.15222
150.40375 0.15224
150.44514 0.15217
150.45285 0.15219
150.49425 0.15212
150.50192 0.15214
150.54334 0.15207
150.55102 0.15208
150.59245 0.15202
150.60010 0.15204
150.64155 0.15197
150.64918 0.15199
150.69064 0.15192
150.69826 0.15193
150.73974 0.15186
150.74736 0.15188
150.78885 0.15181
150.79645 0.15183
150.83795 0.15176
150.84553 0.15178
150.88705 0.15171
150.89462 0.15173
150.93615 0.15166
150.94370 0.15168
150.98525 0.15161
150.99280 0.15163
151.03436 0.15156
151.04188 0.15158
151.08346 0.15151
151.09096 0.15152
151.13255 0.15146
151.14007 0.15147
151.18167 0.15141
151.18915 0.15142
151.23077 0.15135
151.23824 0.15137
151.27987 0.15130
151.28733 0.15132
151.32897 0.15125
151.33641 0.15127
151.37807 0.15120
151.38549 0.15122
151.42716 0.15115
151.43458 0.15117
151.47627 0.15110
151.48367 0.15111
151.52537 0.15105
151.53275 0.15106
151.57447 0.15100
151.58185 0.15101
151.62357 0.15094
151.63092 0.15096
151.67267 0.15089
151.68002 0.15091
151.72178 0.15084
151.72911 0.15086
151.77088 0.15079
151.77820 0.15081
151.81998 0.15074
151.82729 0.15076
151.86909 0.15069
151.87636 0.15070
151.91818 0.15064
151.92546 0.15065
151.96729 0.15059
151.97455 0.15060
152.01639 0.15054
152.02364 0.15055
152.06549 0.15048
152.07272 0.15050
152.11459 0.15043
152.12181 0.15045
152.16369 0.15038
152.17089 0.15040
152.21279 0.15033
152.21999 0.15034
152.26190 0.15028
152.26906 0.15030
152.31099 0.15023
152.31816 0.15024
152.36011 0.15018
152.36724 0.15019
152.40920 0.15012
152.41634 0.15014
152.45831 0.15007
152.46541 0.15009
152.50740 0.15002
152.51451 0.15004
152.55650 0.14997
152.56359 0.14999
152.60560 0.14992
152.61269 0.14994
152.65472 0.14987
152.66176 0.14989
152.70380 0.14982
152.71086 0.14983
152.75292 0.14977
152.75995 0.14978
152.80203 0.14972
152.80902 0.14973
152.85111 0.14967
152.85812 0.14968
152.90022 0.14961
152.90722 0.14963
152.94933 0.14956
152.95629 0.14958
152.99842 0.14951
153.00538 0.14953
153.04752 0.14946
153.05448 0.14948
153.09664 0.14941
153.10355 0.14942
153.14572 0.14936
153.15264 0.14937
153.19483 0.14931
153.20174 0.14932
153.24394 0.14926
153.25082 0.14927
153.29304 0.14920
153.29991 0.14922
153.34213 0.14915
153.34899 0.14917
153.39123 0.14910
153.39808 0.14912
153.44034 0.14905
153.44716 0.14907
153.48944 0.14900
153.49625 0.14901
153.53854 0.14895
153.54534 0.14896
153.58764 0.14890
153.59443 0.14891
153.63674 0.14885
153.64352 0.14886
153.68585 0.14879
153.69259 0.14881
153.73494 0.14875
153.74170 0.14876
153.78406 0.14869
153.79078 0.14871
153.83315 0.14864
153.83986 0.14866
153.88225 0.14859
153.88895 0.14860
153.93135 0.14854
153.93804 0.14855
153.98046 0.14849
153.98712 0.14850
154.02956 0.14844
154.03621 0.14845
154.07866 0.14839
154.08531 0.14840
154.12777 0.14834
154.13439 0.14835
154.17687 0.14828
154.18347 0.14830
154.22596 0.14823
154.23257 0.14825
154.27508 0.14818
154.28164 0.14819
154.32417 0.14813
154.33075 0.14814
154.37328 0.14808
154.37983 0.14809
154.42238 0.14803
154.42891 0.14804
154.47147 0.14798
154.47800 0.14799
154.52058 0.14793
154.52708 0.14794
154.56968 0.14788
154.57617 0.14789
154.61877 0.14782
154.62527 0.14784
154.66790 0.14777
154.67435 0.14779
154.71698 0.14772
154.72344 0.14773
154.76609 0.14767
154.77253 0.14768
154.81520 0.14762
154.82162 0.14763
154.86430 0.14757
154.87070 0.14758
154.91340 0.14752
154.91979 0.14753
154.96250 0.14747
154.96887 0.14748
155.01160 0.14741
155.01795 0.14743
155.06070 0.14736
155.06704 0.14738
155.10980 0.14731
155.11614 0.14733
155.15891 0.14726
155.16522 0.14728
155.20801 0.14721
155.21432 0.14722
155.25712 0.14716
155.26341 0.14717
155.30622 0.14711
155.31248 0.14712
155.35531 0.14706
155.36157 0.14707
155.40441 0.14701
155.41066 0.14702
155.45352 0.14695
155.45976 0.14697
155.50263 0.14690
155.50884 0.14692
155.55173 0.14685
155.55793 0.14687
155.60084 0.14680
155.60700 0.14681
155.64993 0.14675
155.65609 0.14676
155.69903 0.14670
155.70518 0.14671
155.74813 0.14665
155.75428 0.14666
155.79725 0.14660
155.80337 0.14661
155.84635 0.14655
155.85244 0.14656
155.89544 0.14650
155.90154 0.14651
155.94455 0.14644
155.95063 0.14646
155.99366 0.14639
155.99971 0.14640
156.04275 0.14634
156.04880 0.14635
156.09186 0.14629
156.09787 0.14630
156.14094 0.14624
156.14698 0.14625
156.19007 0.14619
156.19607 0.14620
156.23917 0.14614
156.24516 0.14615
156.28827 0.14609
156.29423 0.14610
156.33737 0.14603
156.34332 0.14605
156.38647 0.14598
156.39240 0.14600
156.43556 0.14593
156.44151 0.14594
156.48469 0.14588
156.49059 0.14589
156.53379 0.14583
156.53968 0.14584
156.58289 0.14578
156.58877 0.14579
156.63200 0.14573
156.63785 0.14574
156.68109 0.14567
156.68693 0.14569
156.73019 0.14562
156.73601 0.14564
156.77928 0.14557
156.78511 0.14558
156.82840 0.14552
156.83420 0.14553
156.87750 0.14547
156.88329 0.14548
156.92660 0.14542
156.93238 0.14543
156.97571 0.14537
156.98145 0.14538
157.02480 0.14532
157.03054 0.14533
157.07390 0.14527
157.07963 0.14528
157.12301 0.14521
157.12872 0.14523
157.17211 0.14516
157.17780 0.14518
157.22120 0.14511
157.22689 0.14513
157.27031 0.14506
157.27598 0.14507
157.31942 0.14501
157.32508 0.14502
157.36853 0.14496
157.37416 0.14497
157.41763 0.14491
157.42324 0.14492
157.46673 0.14486
157.47234 0.14487
157.51584 0.14481
157.52141 0.14482
157.56492 0.14475
157.57050 0.14477
157.61403 0.14470
157.61960 0.14472
157.66315 0.14465
157.66869 0.14466
157.71225 0.14460
157.71778 0.14461
157.76135 0.14455
157.76686 0.14456
157.81045 0.14450
157.81595 0.14451
157.85956 0.14445
157.86503 0.14446
157.90865 0.14440
157.91412 0.14441
157.95775 0.14435
157.96320 0.14436
158.00685 0.14429
158.01229 0.14431
158.05596 0.14424
158.06138 0.14425
158.10507 0.14419
158.11047 0.14420
158.15417 0.14414
158.15956 0.14415
158.20328 0.14409
158.20864 0.14410
158.25237 0.14404
158.25773 0.14405
158.30148 0.14399
158.30683 0.14400
158.35059 0.14394
158.35591 0.14395
158.39969 0.14388
158.40498 0.14390
158.44878 0.14383
158.45408 0.14385
158.49788 0.14378
158.50317 0.14379
158.54699 0.14373
158.55225 0.14374
158.59609 0.14368
158.60135 0.14369
158.64520 0.14363
158.65043 0.14364
158.69430 0.14358
158.69952 0.14359
158.74341 0.14353
158.74860 0.14354
158.79250 0.14347
158.79770 0.14349
158.84161 0.14342
158.84677 0.14343
158.89070 0.14337
158.89586 0.14339
158.93981 0.14332
158.94496 0.14333
158.98893 0.14327
158.99405 0.14328
159.03803 0.14322
159.04313 0.14323
159.08713 0.14317
159.09221 0.14318
159.13622 0.14312
159.14130 0.14313
159.18533 0.14307
159.19039 0.14308
159.23443 0.14302
159.23948 0.14303
159.28354 0.14296
159.28856 0.14298
159.33263 0.14291
159.33766 0.14292
159.38175 0.14286
159.38673 0.14287
159.43084 0.14281
159.43583 0.14282
159.47995 0.14276
159.48491 0.14277
159.52905 0.14271
159.53400 0.14272
159.57815 0.14266
159.58309 0.14267
159.62725 0.14261
159.63219 0.14262
159.67637 0.14256
159.68126 0.14257
159.72546 0.14250
159.73035 0.14251
159.77457 0.14245
159.77943 0.14246
159.82367 0.14240
159.82853 0.14241
159.87278 0.14235
159.87762 0.14236
159.92189 0.14230
159.92671 0.14231
159.97099 0.14225
159.97580 0.14226
160.02009 0.14220
160.02489 0.14221
160.06920 0.14214
160.07396 0.14215
160.11829 0.14209
160.12305 0.14210
160.16739 0.14204
160.17213 0.14205
160.21649 0.14199
160.22123 0.14200
160.26560 0.14194
160.27031 0.14195
160.31470 0.14189
160.31939 0.14190
160.36380 0.14184
160.36848 0.14185
160.41290 0.14179
160.41758 0.14180
160.46202 0.14174
160.46667 0.14175
160.51112 0.14169
160.51575 0.14170
160.56023 0.14164
160.56484 0.14164
160.60933 0.14158
160.61394 0.14159
160.65844 0.14153
160.66302 0.14154
160.70754 0.14148
160.71210 0.14149
160.75663 0.14143
160.76119 0.14144
160.80574 0.14138
160.81027 0.14139
160.85484 0.14133
160.85936 0.14134
160.90394 0.14127
160.90845 0.14128
160.95306 0.14122
160.95754 0.14123
161.00216 0.14118
161.00662 0.14119
161.05126 0.14112
161.05571 0.14113
161.10036 0.14107
161.10479 0.14108
161.14946 0.14102
161.15389 0.14103
161.19858 0.14097
161.20296 0.14098
161.24766 0.14092
161.25207 0.14093
161.29678 0.14087
161.30115 0.14088
161.34588 0.14082
161.35024 0.14082
161.39499 0.14076
161.39932 0.14077
161.44409 0.14071
161.44841 0.14072
161.49319 0.14066
161.49751 0.14067
161.54230 0.14061
161.54658 0.14062
161.59139 0.14056
161.59567 0.14057
161.64050 0.14051
161.64477 0.14052
161.68962 0.14046
161.69384 0.14047
161.73871 0.14041
161.74294 0.14042
161.78782 0.14036
161.79202 0.14036
161.83692 0.14030
161.84112 0.14031
161.88603 0.14025
161.89019 0.14026
161.93511 0.14020
161.93928 0.14021
161.98423 0.14015
161.98838 0.14016
162.03334 0.14010
162.03745 0.14011
162.08242 0.14005
162.08655 0.14006
162.13154 0.14000
162.13562 0.14000
162.18063 0.13995
162.18473 0.13996
162.22975 0.13990
162.23380 0.13990
162.27884 0.13984
162.28290 0.13985
162.32796 0.13979
162.33199 0.13980
162.37707 0.13974
162.38107 0.13975
162.42617 0.13969
162.43017 0.13970
162.47528 0.13964
162.47925 0.13965
162.52437 0.13959
162.52834 0.13960
162.57348 0.13954
162.57742 0.13955
162.62258 0.13949
162.62651 0.13949
162.67168 0.13943
162.67559 0.13944
162.72078 0.13938
162.72469 0.13939
162.76990 0.13933
162.77376 0.13934
162.81899 0.13928
162.82286 0.13929
162.86810 0.13923
162.87194 0.13924
162.91720 0.13918
162.92103 0.13919
162.96631 0.13913
162.97012 0.13914
163.01541 0.13908
163.01921 0.13909
163.06452 0.13902
163.06830 0.13903
163.11363 0.13897
163.11737 0.13898
163.16271 0.13892
163.16648 0.13893
163.21184 0.13887
163.21556 0.13888
163.26094 0.13882
163.26464 0.13883
163.31003 0.13877
163.31372 0.13878
163.35913 0.13872
163.36282 0.13873
163.40824 0.13867
163.41190 0.13868
163.45734 0.13862
163.46098 0.13862
163.50644 0.13856
163.51008 0.13857
163.55556 0.13851
163.55917 0.13852
163.60466 0.13846
163.60825 0.13847
163.65376 0.13841
163.65735 0.13842
163.70287 0.13836
163.70643 0.13837
163.75197 0.13831
163.75552 0.13832
163.80108 0.13826
163.80461 0.13826
163.85019 0.13821
163.85369 0.13822
163.89928 0.13816
163.90278 0.13816
163.94839 0.13810
163.95186 0.13811
163.99749 0.13805
164.00095 0.13806
164.04660 0.13800
164.05003 0.13801
164.09569 0.13795
164.09913 0.13796
164.14481 0.13790
164.14822 0.13791
164.19391 0.13785
164.19731 0.13786
164.24302 0.13780
164.24639 0.13780
164.29212 0.13775
164.29547 0.13775
164.34121 0.13770
164.34456 0.13770
164.39033 0.13765
164.39365 0.13765
164.43943 0.13759
164.44274 0.13760
164.48854 0.13754
164.49182 0.13755
164.53764 0.13749
164.54092 0.13750
164.58675 0.13744
164.59000 0.13745
164.63584 0.13739
164.63910 0.13739
164.68496 0.13734
164.68819 0.13735
164.73407 0.13729
164.73727 0.13729
164.78317 0.13723
164.78635 0.13724
164.83226 0.13718
164.83544 0.13719
164.88137 0.13713
164.88453 0.13714
164.93048 0.13708
164.93361 0.13709
164.97958 0.13703
164.98271 0.13704
165.02870 0.13698
165.03180 0.13699
165.07780 0.13693
165.08089 0.13694
165.12690 0.13688
165.12997 0.13688
165.17601 0.13683
165.17906 0.13683
165.22511 0.13678
165.22814 0.13678
165.27421 0.13672
165.27722 0.13673
165.32331 0.13667
165.32632 0.13668
165.37243 0.13662
165.37541 0.13663
165.42153 0.13657
165.42450 0.13658
165.47064 0.13652
165.47358 0.13653
165.51974 0.13647
165.52267 0.13647
165.56884 0.13642
165.57175 0.13642
165.61794 0.13637
165.62082 0.13637
165.66703 0.13632
165.66993 0.13632
165.71615 0.13626
165.71901 0.13627
165.76526 0.13621
165.76810 0.13622
165.81436 0.13616
165.81719 0.13617
165.86347 0.13611
165.86628 0.13612
165.91257 0.13606
165.91536 0.13606
165.96167 0.13601
165.96446 0.13601
166.01079 0.13596
166.01353 0.13596
166.05988 0.13591
166.06264 0.13591
166.10900 0.13585
166.11172 0.13586
166.15810 0.13580
166.16079 0.13581
166.20719 0.13575
166.20988 0.13576
166.25630 0.13570
166.25897 0.13571
166.30541 0.13565
166.30805 0.13566
166.35451 0.13560
166.35714 0.13560
166.40361 0.13555
166.40623 0.13555
166.45272 0.13549
166.45532 0.13550
166.50182 0.13544
166.50441 0.13545
166.55093 0.13539
166.55350 0.13540
166.60004 0.13534
166.60259 0.13535
166.64915 0.13529
166.65167 0.13530
166.69824 0.13524
166.70076 0.13525
166.74735 0.13519
166.74984 0.13520
166.79645 0.13514
166.79894 0.13514
166.84557 0.13509
166.84803 0.13509
166.89467 0.13504
166.89711 0.13504
166.94378 0.13498
166.94619 0.13499
166.99288 0.13493
166.99528 0.13494
167.04198 0.13488
167.04438 0.13489
167.09110 0.13483
167.09346 0.13484
167.14019 0.13478
167.14255 0.13478
167.18930 0.13473
167.19164 0.13474
167.23841 0.13468
167.24072 0.13468
167.28751 0.13463
167.28981 0.13463
167.33662 0.13458
167.33888 0.13458
167.38571 0.13452
167.38798 0.13453
167.43483 0.13447
167.43707 0.13448
167.48393 0.13442
167.48616 0.13443
167.53304 0.13437
167.53525 0.13438
167.58215 0.13432
167.58432 0.13432
167.63123 0.13427
167.63343 0.13427
167.68036 0.13422
167.68252 0.13422
167.72946 0.13417
167.73161 0.13417
167.77857 0.13411
167.78067 0.13412
167.82766 0.13406
167.82976 0.13407
167.87676 0.13401
167.87886 0.13402
167.92588 0.13396
167.92795 0.13396
167.97499 0.13391
167.97703 0.13392
168.02409 0.13386
168.02612 0.13386
168.07320 0.13381
168.07521 0.13381
168.12230 0.13376
168.12430 0.13376
168.17141 0.13371
168.17339 0.13371
168.22052 0.13365
168.22247 0.13366
168.26962 0.13360
168.27156 0.13361
168.31873 0.13355
168.32064 0.13356
168.36783 0.13350
168.36973 0.13351
168.41693 0.13345
168.41882 0.13345
168.46604 0.13340
168.46792 0.13340
168.51515 0.13335
168.51700 0.13335
168.56425 0.13330
168.56607 0.13330
168.61334 0.13324
168.61516 0.13325
168.66246 0.13319
168.66425 0.13320
168.71156 0.13314
168.71333 0.13315
168.76066 0.13309
168.76243 0.13310
168.80978 0.13304
168.81152 0.13304
168.85888 0.13299
168.86061 0.13299
168.90799 0.13294
168.90970 0.13294
168.95710 0.13289
168.95878 0.13289
169.00620 0.13283
169.00787 0.13284
169.05531 0.13279
169.05696 0.13279
169.10442 0.13274
169.10604 0.13274
169.15351 0.13268
169.15514 0.13269
169.20263 0.13263
169.20422 0.13264
169.25173 0.13258
169.25331 0.13258
169.30084 0.13253
169.30239 0.13253
169.34994 0.13248
169.35147 0.13248
169.39904 0.13243
169.40057 0.13243
169.44815 0.13238
169.44965 0.13238
169.49725 0.13232
169.49874 0.13233
169.54636 0.13227
169.54783 0.13228
169.59547 0.13222
169.59691 0.13223
169.64457 0.13217
169.64600 0.13217
169.69368 0.13212
169.69509 0.13212
169.74278 0.13207
169.74419 0.13207
169.79190 0.13202
169.79327 0.13202
169.84100 0.13197
169.84235 0.13197
169.89010 0.13192
169.89145 0.13192
169.93921 0.13186
169.94053 0.13187
169.98831 0.13181
169.98963 0.13182
170.03743 0.13176
170.03871 0.13177
170.08653 0.13171
170.08780 0.13171
170.13564 0.13166
170.13687 0.13166
170.18474 0.13161
170.18597 0.13161
170.23385 0.13156
170.23505 0.13156
170.28295 0.13151
170.28414 0.13151
170.33206 0.13146
170.33322 0.13146
170.38116 0.13140
170.38231 0.13141
170.43027 0.13135
170.43140 0.13135
170.47938 0.13130
170.48050 0.13130
170.52849 0.13125
170.52956 0.13125
170.57757 0.13120
170.57866 0.13120
170.62669 0.13115
170.62775 0.13115
170.67580 0.13110
170.67685 0.13110
170.72492 0.13104
170.72593 0.13105
170.77402 0.13100
170.77503 0.13100
170.82313 0.13094
170.82411 0.13095
170.87223 0.13089
170.87319 0.13090
170.92133 0.13084
170.92227 0.13084
170.97043 0.13079
170.97136 0.13079
171.01954 0.13074
171.02045 0.13074
171.06865 0.13069
171.06953 0.13069
171.11775 0.13064
171.11863 0.13064
171.16686 0.13058
171.16772 0.13059
171.21597 0.13053
171.21680 0.13054
171.26507 0.13048
171.26590 0.13049
171.31419 0.13043
171.31498 0.13043
171.36330 0.13038
171.36405 0.13038
171.41239 0.13033
171.41315 0.13033
171.46150 0.13028
171.46223 0.13028
171.51060 0.13023
171.51132 0.13023
171.55971 0.13017
171.56041 0.13018
171.60882 0.13012
171.60951 0.13013
171.65794 0.13007
171.65858 0.13007
171.70703 0.13002
171.70767 0.13003
171.75613 0.12997
171.75677 0.12997
171.80525 0.12992
171.80584 0.12992
171.85434 0.12987
171.85494 0.12987
171.90346 0.12982
171.90402 0.12982
171.95256 0.12977
171.95312 0.12977
172.00168 0.12972
172.00220 0.12972
172.05078 0.12966
172.05128 0.12967
172.09988 0.12961
172.10036 0.12961
172.14898 0.12956
172.14946 0.12956
172.19810 0.12951
172.19855 0.12951
172.24721 0.12946
172.24764 0.12946
172.29632 0.12941
172.29673 0.12941
172.34543 0.12936
172.34581 0.12936
172.39452 0.12931
172.39490 0.12931
172.44363 0.12926
172.44398 0.12926
172.49273 0.12920
172.49306 0.12920
172.54184 0.12915
172.54217 0.12915
172.59096 0.12910
172.59124 0.12910
172.64005 0.12905
172.64034 0.12905
172.68917 0.12900
172.68942 0.12900
172.73827 0.12895
172.73850 0.12895
172.78737 0.12890
172.78760 0.12890
172.83649 0.12884
172.83668 0.12885
172.88559 0.12880
172.88578 0.12880
172.93471 0.12874
172.93486 0.12874
172.98380 0.12869
172.98394 0.12869
173.03290 0.12864
173.03303 0.12864
173.08202 0.12859
173.08211 0.12859
173.13112 0.12854
173.13120 0.12854
173.18023 0.12849
173.18030 0.12849
173.22935 0.12844
173.22938 0.12844
173.27845 0.12839
173.27847 0.12839
173.32755 0.12833
173.37665 0.12829
173.42572 0.12823
173.47481 0.12818
173.52390 0.12813
173.57299 0.12808
173.62208 0.12803
173.67116 0.12798
173.72025 0.12792
173.76936 0.12787
173.81843 0.12782
173.86752 0.12777
173.91660 0.12772
173.96570 0.12767
174.01477 0.12762
174.06387 0.12757
174.11296 0.12752
174.16205 0.12746
174.21113 0.12741
174.26022 0.12736
174.30931 0.12731
174.35839 0.12726
174.40749 0.12721
174.45657 0.12716
174.50566 0.12711
174.55474 0.12706
174.60384 0.12700
174.65291 0.12695
174.70201 0.12690
174.75110 0.12685
174.80019 0.12680
174.84927 0.12675
174.89836 0.12670
174.94745 0.12665
174.99652 0.12659
175.04561 0.12654
175.09469 0.12649
175.14379 0.12644
175.19289 0.12639
175.24197 0.12634
175.29107 0.12629
175.34015 0.12624
175.38924 0.12619
175.43831 0.12613
175.48741 0.12608
175.53649 0.12603
175.58559 0.12598
175.63466 0.12593
175.68375 0.12588
175.73283 0.12583
175.78192 0.12578
175.83102 0.12572
175.88009 0.12567
175.92919 0.12562
175.97828 0.12557
176.02737 0.12552
176.07644 0.12547
176.12555 0.12542
176.17462 0.12537
176.22371 0.12531
176.27280 0.12526
176.32190 0.12521
176.37097 0.12516
176.42007 0.12511
176.46916 0.12506
176.51824 0.12501
176.56734 0.12496
176.61640 0.12491
176.66549 0.12486
176.71459 0.12480
176.76367 0.12475
176.81277 0.12470
176.86184 0.12465
176.91093 0.12460
176.96003 0.12455
177.00911 0.12450
177.05820 0.12444
177.10729 0.12439
177.15638 0.12434
177.20545 0.12429
177.25456 0.12424
177.30364 0.12419
177.35273 0.12414
177.40181 0.12409
177.45090 0.12404
177.49998 0.12398
177.54909 0.12393
177.59817 0.12388
177.64724 0.12383
177.69633 0.12378
177.74542 0.12373
177.79450 0.12368
177.84361 0.12363
177.89269 0.12358
177.94177 0.12352
177.99087 0.12347
178.03994 0.12342
178.08903 0.12337
178.13812 0.12332
178.18720 0.12327
178.23630 0.12322
178.28538 0.12317
178.33447 0.12311
178.38357 0.12306
178.43264 0.12301
178.48172 0.12296
178.53081 0.12291
178.57990 0.12286
178.62899 0.12281
178.67809 0.12276
178.72718 0.12271
178.77626 0.12265
178.82535 0.12260
178.87443 0.12255
178.92352 0.12250
178.97261 0.12245
179.02168 0.12240
179.07078 0.12235
179.11987 0.12229
179.16896 0.12224
179.21805 0.12219
179.26714 0.12214
179.31623 0.12209
179.36530 0.12204
179.41439 0.12199
179.46349 0.12194
179.51257 0.12189
179.56164 0.12183
179.61074 0.12178
179.65983 0.12173
179.70891 0.12168
179.75801 0.12163
179.80710 0.12158
179.85618 0.12153
179.90527 0.12148
179.95437 0.12142
180.00345 0.12137
180.05252 0.12132
180.10162 0.12127
180.15070 0.12122
180.19980 0.12117
180.24888 0.12112
180.29796 0.12107
180.34705 0.12101
180.39613 0.12096
180.44521 0.12091
180.49431 0.12086
180.54341 0.12081
180.59249 0.12076
180.64158 0.12071
180.69065 0.12066
180.73976 0.12061
180.78885 0.12055
180.83792 0.12050
180.88701 0.12045
180.93609 0.12040
180.98518 0.12035
181.03428 0.12030
181.08335 0.12025
181.13244 0.12020
181.18155 0.12015
181.23062 0.12009
181.27971 0.12004
181.32881 0.11999
181.37787 0.11994
181.42698 0.11989
181.47606 0.11984
181.52516 0.11979
181.57424 0.11974
181.62333 0.11969
181.67241 0.11963
181.72151 0.11958
181.77059 0.11953
181.81968 0.11948
181.86875 0.11943
181.91785 0.11938
181.96695 0.11933
182.01602 0.11927
182.06510 0.11922
182.11420 0.11917
182.16328 0.11912
182.21237 0.11907
182.26146 0.11902
182.31055 0.11897
182.35963 0.11892
182.40873 0.11887
182.45782 0.11881
182.50689 0.11876
182.55599 0.11871
182.60508 0.11866
182.65415 0.11861
182.70325 0.11856
182.75233 0.11851
182.80142 0.11845
182.85051 0.11841
182.89960 0.11835
182.94869 0.11830
182.99777 0.11825
183.04686 0.11820
183.09594 0.11815
183.14502 0.11810
183.19412 0.11805
183.24319 0.11799
183.29230 0.11794
183.34138 0.11789
183.39047 0.11784
183.43955 0.11779
183.48865 0.11774
183.53774 0.11769
183.58681 0.11764
183.63592 0.11759
183.68500 0.11753
183.73408 0.11748
183.78317 0.11743
183.83225 0.11738
183.88135 0.11733
183.93043 0.11728
183.97951 0.11723
184.02862 0.11718
184.07771 0.11712
184.12678 0.11707
184.17588 0.11702
184.22496 0.11697
184.27404 0.11692
184.32313 0.11687
184.37221 0.11682
184.42131 0.11677
184.47040 0.11672
184.51948 0.11666
184.56857 0.11661
184.61766 0.11656
184.66674 0.11651
184.71583 0.11646
184.76492 0.11641
184.81401 0.11636
184.86310 0.11631
184.91219 0.11625
184.96127 0.11620
185.01036 0.11615
185.05944 0.11610
185.10852 0.11605
185.15762 0.11600
185.20670 0.11595
185.25580 0.11590
185.30487 0.11585
185.35397 0.11579
185.40306 0.11574
185.45214 0.11569
185.50124 0.11564
185.55032 0.11559
185.59939 0.11554
185.64850 0.11549
185.69759 0.11544
185.74667 0.11539
185.79575 0.11533
185.84484 0.11528
185.89394 0.11523
185.94300 0.11518
185.99210 0.11513
186.04119 0.11508
186.09028 0.11503
186.13936 0.11497
186.18846 0.11492
186.23754 0.11487
186.28663 0.11482
186.33573 0.11477
186.38480 0.11472
186.43389 0.11467
186.48298 0.11462
186.53206 0.11456
186.58116 0.11452
186.63025 0.11446
186.67934 0.11441
186.72840 0.11436
186.77749 0.11431
186.82660 0.11426
186.87568 0.11421
186.92476 0.11416
186.97384 0.11410
187.02294 0.11405
187.07201 0.11400
187.12110 0.11395
187.17020 0.11390
187.21930 0.11385
187.26839 0.11380
187.31747 0.11375
187.36655 0.11369
187.41563 0.11365
187.46472 0.11359
187.51383 0.11354
187.56288 0.11349
187.61199 0.11344
187.66109 0.11339
187.71016 0.11334
187.75924 0.11329
187.80834 0.11324
187.85742 0.11318
187.90651 0.11313
187.95558 0.11308
188.00469 0.11303
188.05377 0.11298
188.10286 0.11293
188.15195 0.11288
188.20104 0.11282
188.25012 0.11277
188.29922 0.11272
188.34831 0.11267
188.39739 0.11262
188.44649 0.11257
188.49556 0.11252
188.54465 0.11247
188.59373 0.11242
188.64282 0.11236
188.69191 0.11231
188.74101 0.11226
188.79009 0.11221
188.83916 0.11216
188.88826 0.11211
188.93736 0.11206
188.98644 0.11201
189.03552 0.11196
189.08462 0.11190
189.13370 0.11185
189.18278 0.11180
189.23186 0.11175
189.28096 0.11170
189.33003 0.11165
189.37913 0.11160
189.42824 0.11155
189.47732 0.11149
189.52640 0.11144
189.57548 0.11139
189.62459 0.11134
189.67367 0.11129
189.72274 0.11124
189.77184 0.11119
189.82091 0.11114
189.87000 0.11108
189.91909 0.11103
189.96819 0.11098
190.01727 0.11093
190.06636 0.11088
190.11543 0.11083
190.16453 0.11078
190.21362 0.11073
190.26269 0.11068
190.31179 0.11062
190.36089 0.11057
190.40996 0.11052
190.45907 0.11047
190.50813 0.11042
190.55724 0.11037
190.60632 0.11032
190.65540 0.11027
190.70450 0.11021
190.75357 0.11016
190.80266 0.11011
190.85175 0.11006
190.90085 0.11001
190.94993 0.10996
190.99901 0.10991
191.04810 0.10986
191.09718 0.10980
191.14626 0.10975
191.19537 0.10970
191.24446 0.10965
191.29353 0.10960
191.34264 0.10955
191.39172 0.10950
191.44081 0.10945
191.48988 0.10940
191.53899 0.10934
191.58808 0.10929
191.63715 0.10924
191.68624 0.10919
191.73532 0.10914
191.78440 0.10909
191.83350 0.10904
191.88259 0.10899
191.93169 0.10893
191.98076 0.10888
192.02986 0.10883
192.07894 0.10878
192.12801 0.10873
192.17710 0.10868
192.22621 0.10863
192.27528 0.10858
192.32437 0.10852
192.37346 0.10848
192.42255 0.10842
192.47163 0.10837
192.52073 0.10832
192.56981 0.10827
192.61889 0.10822
192.66797 0.10817
192.71707 0.10812
192.76615 0.10806
192.81526 0.10801
192.86435 0.10796
192.91343 0.10791
192.96251 0.10786
193.01160 0.10781
193.06070 0.10776
193.10979 0.10771
193.15886 0.10765
193.20795 0.10760
193.25702 0.10755
193.30612 0.10750
193.35521 0.10745
193.40431 0.10740
193.45338 0.10735
193.50248 0.10730
193.55156 0.10725
193.60065 0.10720
193.64974 0.10714
193.69882 0.10709
193.74791 0.10704
193.79700 0.10699
193.84608 0.10694
193.89519 0.10689
193.94427 0.10684
193.99335 0.10679
194.04243 0.10673
194.09153 0.10668
194.14062 0.10663
194.18969 0.10658
194.23879 0.10653
194.28788 0.10648
194.33697 0.10642
194.38605 0.10637
194.43514 0.10633
194.48424 0.10627
194.53330 0.10622
194.58238 0.10617
194.63149 0.10612
194.68058 0.10607
194.72967 0.10602
194.77874 0.10597
194.82784 0.10591
194.87692 0.10586
194.92601 0.10581
194.97509 0.10576
195.02418 0.10571
195.07327 0.10566
195.12237 0.10561
195.17145 0.10556
195.22052 0.10550
195.26961 0.10546
195.31871 0.10540
195.36778 0.10535
195.41687 0.10530
195.46598 0.10525
195.51507 0.10520
195.56414 0.10515
195.61323 0.10510
195.66233 0.10504
195.71142 0.10499
195.76048 0.10494
195.80957 0.10489
195.85868 0.10484
195.90775 0.10479
195.95685 0.10474
196.00593 0.10469
196.05500 0.10464
196.10411 0.10458
196.15319 0.10453
196.20228 0.10448
196.25135 0.10443
196.30045 0.10438
196.34954 0.10433
196.39862 0.10428
196.44771 0.10423
196.49682 0.10417
196.54590 0.10412
196.59498 0.10407
196.64406 0.10402
196.69314 0.10397
196.74225 0.10392
196.79132 0.10387
196.84041 0.10382
196.88949 0.10377
196.93859 0.10371
196.98768 0.10366
197.03677 0.10361
197.08584 0.10356
197.13494 0.10351
197.18402 0.10346
197.23310 0.10341
197.28219 0.10336
197.33129 0.10330
197.38036 0.10325
197.42947 0.10320
197.47854 0.10315
197.52765 0.10310
197.57672 0.10305
197.62580 0.10300
197.67490 0.10295
197.72397 0.10289
197.77306 0.10284
197.82215 0.10279
197.87126 0.10274
197.92034 0.10269
197.96943 0.10264
198.01851 0.10259
198.06759 0.10254
198.11668 0.10249
198.16576 0.10243
198.21486 0.10238
198.26394 0.10233
198.31305 0.10228
198.36213 0.10223
198.41122 0.10218
198.46030 0.10213
198.50938 0.10208
198.55847 0.10202
198.60757 0.10197
198.65665 0.10192
198.70574 0.10187
198.75482 0.10182
198.80390 0.10177
198.85300 0.10172
198.90209 0.10167
198.95118 0.10161
199.00025 0.10156
199.04936 0.10151
199.09844 0.10146
199.14752 0.10141
199.19660 0.10136
199.24568 0.10131
199.29479 0.10126
199.34388 0.10121
199.39295 0.10115
199.44204 0.10110
199.49113 0.10105
199.54021 0.10100
199.58930 0.10095
199.63839 0.10090
199.68749 0.10085
199.73657 0.10080
199.78566 0.10074
199.83474 0.10069
199.88384 0.10064
199.93290 0.10059
199.98201 0.10054
200.03110 0.10049
200.08018 0.10044
200.12927 0.10039
200.17836 0.10033
200.22745 0.10028
200.27653 0.10023
200.32562 0.10018
200.37470 0.10013
200.42380 0.10008
200.47288 0.10003
200.52196 0.09998
200.57106 0.09993
200.62015 0.09987
200.66924 0.09982
200.71830 0.09977
200.76739 0.09972
200.81650 0.09967
200.86557 0.09962
200.91467 0.09957
200.96374 0.09952
201.01285 0.09946
201.06193 0.09941
201.11102 0.09936
201.16010 0.09931
201.20920 0.09926
201.25827 0.09921
201.30738 0.09916
201.35645 0.09911
201.40554 0.09906
201.45463 0.09901
201.50371 0.09895
201.55281 0.09890
201.60188 0.09885
201.65097 0.09880
201.70005 0.09875
201.74916 0.09870
201.79824 0.09865
201.84733 0.09859
201.89642 0.09854
201.94550 0.09849
201.99459 0.09844
202.04368 0.09839
202.09275 0.09834
202.14184 0.09829
202.19093 0.09824
202.24003 0.09818
202.28913 0.09814
202.33820 0.09808
202.38729 0.09803
202.43638 0.09798
202.48545 0.09793
202.53454 0.09788
202.58363 0.09783
202.63273 0.09778
202.68181 0.09772
202.73089 0.09767
202.77998 0.09762
202.82908 0.09757
202.87815 0.09752
202.92725 0.09747
202.97635 0.09742
203.02543 0.09737
203.07451 0.09732
203.12361 0.09727
203.17268 0.09721
203.22178 0.09716
203.27087 0.09711
203.31995 0.09706
203.36901 0.09701
203.41812 0.09696
203.46719 0.09691
203.51630 0.09685
203.56538 0.09681
203.61449 0.09675
203.66357 0.09670
203.71264 0.09665
203.76172 0.09660
203.81083 0.09655
203.85992 0.09650
203.90899 0.09644
203.95810 0.09639
204.00717 0.09634
204.05627 0.09629
204.10534 0.09624
204.15445 0.09619
204.20352 0.09614
204.25262 0.09609
204.30169 0.09604
204.35078 0.09598
204.39986 0.09593
204.44896 0.09588
204.49804 0.09583
204.54715 0.09578
204.59623 0.09573
204.64529 0.09568
204.69438 0.09563
204.74349 0.09558
204.79259 0.09552
204.84167 0.09547
204.89075 0.09542
204.93983 0.09537
204.98892 0.09532
205.03802 0.09527
205.08709 0.09522
205.13618 0.09517
205.18528 0.09511
205.23435 0.09506
205.28343 0.09501
205.33254 0.09496
205.38162 0.09491
205.43070 0.09486
205.47979 0.09481
205.52889 0.09476
205.57798 0.09470
205.62706 0.09466
205.67613 0.09460
205.72523 0.09455
205.77432 0.09450
205.82340 0.09445
205.87248 0.09440
205.92159 0.09435
205.97067 0.09430
206.01977 0.09424
206.06883 0.09419
206.11792 0.09414
206.16703 0.09409
206.21611 0.09404
206.26519 0.09399
206.31427 0.09394
206.36337 0.09389
206.41244 0.09384
206.46154 0.09378
206.51063 0.09373
206.55972 0.09368
206.60881 0.09363
206.65789 0.09358
206.70698 0.09353
206.75606 0.09348
206.80514 0.09343
206.85425 0.09337
206.90333 0.09332
206.95242 0.09327
207.00150 0.09322
207.05059 0.09317
207.09967 0.09312
207.14876 0.09307
207.19784 0.09302
207.24693 0.09296
207.29604 0.09291
207.34512 0.09286
207.39421 0.09281
207.44328 0.09276
207.49236 0.09271
207.54148 0.09266
207.59054 0.09261
207.63963 0.09255
207.68872 0.09250
207.73782 0.09245
207.78691 0.09240
207.83598 0.09235
207.88507 0.09230
207.93416 0.09225
207.98324 0.09220
208.03236 0.09215
208.08142 0.09210
208.13051 0.09204
208.17961 0.09199
208.22869 0.09194
208.27779 0.09189
208.32684 0.09184
208.37596 0.09179
208.42505 0.09174
208.47411 0.09169
208.52323 0.09163
208.57229 0.09158
208.62138 0.09153
208.67049 0.09148
208.71958 0.09143
208.76867 0.09138
208.81773 0.09133
208.86682 0.09127
208.91591 0.09122
208.96499 0.09117
209.01407 0.09112
209.06317 0.09107
209.11226 0.09102
209.16135 0.09097
209.21042 0.09092
209.25952 0.09087
209.30862 0.09081
209.35769 0.09076
209.40679 0.09071
209.45588 0.09066
209.50497 0.09061
209.55406 0.09056
209.60313 0.09051
209.65224 0.09046
209.70131 0.09041
209.75039 0.09035
209.79949 0.09030
209.84856 0.09025
209.89765 0.09020
209.94674 0.09015
209.99584 0.09010
210.04493 0.09005
210.09401 0.08999
210.14312 0.08994
210.19219 0.08989
210.24128 0.08984
210.29036 0.08979
210.33945 0.08974
210.38852 0.08969
210.43763 0.08964
210.48671 0.08959
210.53581 0.08954
210.58487 0.08948
210.63397 0.08943
210.68307 0.08938
210.73216 0.08933
210.78122 0.08928
210.83033 0.08923
210.87941 0.08918
210.92849 0.08912
210.97758 0.08908
211.02667 0.08902
211.07575 0.08897
211.12484 0.08892
211.17393 0.08887
211.22301 0.08882
211.27211 0.08877
211.32118 0.08872
211.37026 0.08866
211.41936 0.08861
211.46846 0.08856
211.51753 0.08851
211.56664 0.08846
211.61572 0.08841
211.66482 0.08836
211.71390 0.08831
211.76298 0.08825
211.81206 0.08820
211.86114 0.08815
211.91024 0.08810
211.95932 0.08805
212.00841 0.08800
212.05750 0.08795
212.10659 0.08790
212.15566 0.08784
212.20478 0.08780
212.25384 0.08774
212.30294 0.08769
212.35202 0.08764
212.40113 0.08759
212.45021 0.08754
212.49930 0.08749
212.54838 0.08744
212.59748 0.08738
212.64656 0.08733
212.69564 0.08728
212.74472 0.08723
212.79380 0.08718
212.84290 0.08713
212.89201 0.08708
212.94106 0.08703
212.99017 0.08698
213.03924 0.08692
213.08835 0.08687
213.13742 0.08682
213.18651 0.08677
213.23560 0.08672
213.28469 0.08667
213.33377 0.08662
213.38288 0.08657
213.43195 0.08651
213.48102 0.08646
213.53012 0.08641
213.57922 0.08636
213.62830 0.08631
213.67740 0.08626
213.72646 0.08621
213.77555 0.08616
213.82466 0.08611
213.87374 0.08605
213.92281 0.08600
213.97190 0.08595
214.02101 0.08590
214.07007 0.08585
214.11919 0.08580
214.16829 0.08575
214.21734 0.08569
214.26643 0.08564
214.31551 0.08559
214.36462 0.08554
214.41370 0.08549
214.46278 0.08544
214.51186 0.08539
214.56097 0.08534
214.61005 0.08529
214.65913 0.08523
214.70821 0.08518
214.75731 0.08513
214.80641 0.08508
214.85548 0.08503
214.90458 0.08498
214.95366 0.08493
215.00273 0.08488
215.05184 0.08482
215.10092 0.08477
215.15000 0.08472
215.19910 0.08467
215.24818 0.08462
215.29729 0.08457
215.34636 0.08452
215.39543 0.08447
215.44455 0.08442
215.49364 0.08436
215.54269 0.08431
215.59180 0.08426
215.64088 0.08421
215.68998 0.08416
215.73906 0.08411
215.78813 0.08406
215.83724 0.08401
215.88631 0.08396
215.93542 0.08390
215.98449 0.08385
216.03358 0.08380
216.08266 0.08375
216.13177 0.08370
216.18086 0.08365
216.22992 0.08360
216.27901 0.08355
216.32810 0.08349
216.37721 0.08344
216.42627 0.08339
216.47537 0.08334
216.52445 0.08329
216.57355 0.08324
216.62263 0.08319
216.67171 0.08314
216.72081 0.08308
216.76989 0.08303
216.81899 0.08298
216.86808 0.08293
216.91717 0.08288
216.96624 0.08283
217.01532 0.08278
217.06443 0.08273
217.11350 0.08268
217.16260 0.08262
217.21168 0.08257
217.26076 0.08252
217.30987 0.08247
217.35893 0.08242
217.40803 0.08237
217.45710 0.08232
217.50621 0.08227
217.55529 0.08221
217.60438 0.08216
217.65346 0.08211
217.70255 0.08206
217.75164 0.08201
217.80074 0.08196
217.84983 0.08191
217.89888 0.08186
217.94800 0.08180
217.99707 0.08176
218.04618 0.08170
218.09526 0.08165
218.14433 0.08160
218.19342 0.08155
218.24251 0.08150
218.29159 0.08145
218.34069 0.08140
218.38977 0.08135
218.43888 0.08129
218.48794 0.08124
218.53702 0.08119
218.58613 0.08114
218.63523 0.08109
218.68431 0.08104
218.73340 0.08099
218.78246 0.08094
218.83154 0.08088
218.88067 0.08083
218.92975 0.08078
218.97883 0.08073
219.02789 0.08068
219.07698 0.08063
219.12609 0.08058
219.17515 0.08053
219.22426 0.08047
219.27335 0.08042
219.32245 0.08037
219.37152 0.08032
219.42063 0.08027
219.46970 0.08022
219.51880 0.08017
219.56789 0.08012
219.61697 0.08006
219.66605 0.08001
219.71515 0.07996
219.76424 0.07991
219.81331 0.07986
219.86241 0.07981
219.91149 0.07976
219.96059 0.07971
220.00967 0.07966
220.05874 0.07961
220.10783 0.07955
220.15694 0.07950
220.20603 0.07945
220.25510 0.07940
220.30419 0.07935
220.35326 0.07930
220.40235 0.07925
220.45145 0.07919
220.50054 0.07915
220.54960 0.07909
220.59872 0.07904
220.64780 0.07899
220.69688 0.07894
220.74598 0.07889
220.79508 0.07884
220.84415 0.07878
220.89326 0.07873
220.94231 0.07868
220.99142 0.07863
221.04049 0.07858
221.08959 0.07853
221.13867 0.07848
221.18777 0.07843
221.23684 0.07838
221.28593 0.07832
221.33502 0.07827
221.38411 0.07822
221.43318 0.07817
221.48228 0.07812
221.53137 0.07807
221.58047 0.07802
221.62956 0.07797
221.67865 0.07792
221.72771 0.07786
221.77681 0.07781
221.82591 0.07776
221.87499 0.07771
221.92407 0.07766
221.97316 0.07761
222.02226 0.07756
222.07134 0.07751
222.12043 0.07746
222.16951 0.07740
222.21859 0.07735
222.26768 0.07730
222.31677 0.07725
222.36588 0.07720
222.41497 0.07715
222.46401 0.07710
222.51313 0.07704
222.56220 0.07699
222.61127 0.07694
222.66039 0.07689
222.70947 0.07684
222.75857 0.07679
222.80765 0.07674
222.85675 0.07669
222.90580 0.07663
222.95490 0.07658
223.00400 0.07653
223.05308 0.07648
223.10218 0.07643
223.15127 0.07638
223.20032 0.07633
223.24942 0.07628
223.29852 0.07623
223.34761 0.07617
223.39667 0.07612
223.44578 0.07607
223.49488 0.07602
223.54395 0.07597
223.59306 0.07592
223.64213 0.07587
223.69123 0.07582
223.74031 0.07577
223.78939 0.07572
223.83848 0.07566
223.88757 0.07561
223.93665 0.07556
223.98573 0.07551
224.03482 0.07546
224.08391 0.07541
224.13301 0.07536
224.18210 0.07530
224.23118 0.07525
224.28025 0.07520
224.32937 0.07515
224.37844 0.07510
224.42752 0.07505
224.47663 0.07500
224.52570 0.07495
224.57477 0.07490
224.62387 0.07484
224.67296 0.07479
224.72206 0.07474
224.77113 0.07469
224.82024 0.07464
224.86929 0.07459
224.91840 0.07454
224.96748 0.07449
225.01659 0.07443
225.06565 0.07438
225.11476 0.07433
225.16384 0.07428
225.21291 0.07423
225.26200 0.07418
225.31110 0.07413
225.36021 0.07408
225.40927 0.07402
225.45834 0.07397
225.50745 0.07392
225.55653 0.07387
225.60560 0.07382
225.65470 0.07377
225.70379 0.07372
225.75288 0.07367
225.80198 0.07361
225.85105 0.07357
225.90013 0.07351
225.94921 0.07346
225.99830 0.07341
226.04742 0.07336
226.09650 0.07331
226.14559 0.07326
226.19467 0.07321
226.24378 0.07316
226.29286 0.07310
226.34194 0.07305
226.39101 0.07300
226.44010 0.07295
226.48920 0.07290
226.53829 0.07285
226.58738 0.07280
226.63645 0.07275
226.68555 0.07270
226.73464 0.07264
226.78372 0.07259
226.83280 0.07254
226.88189 0.07249
226.93097 0.07244
226.98007 0.07239
227.02914 0.07234
227.07824 0.07229
227.12735 0.07223
227.17641 0.07218
227.22552 0.07213
227.27459 0.07208
227.32367 0.07203
227.37279 0.07198
227.42187 0.07193
227.47093 0.07188
227.52004 0.07182
227.56912 0.07177
227.61820 0.07172
227.66730 0.07167
227.71636 0.07162
227.76547 0.07157
227.81455 0.07152
227.86365 0.07146
227.91275 0.07142
227.96182 0.07136
228.01092 0.07131
228.06000 0.07126
228.10908 0.07121
228.15818 0.07116
228.20728 0.07111
228.25636 0.07106
228.30545 0.07100
228.35450 0.07095
228.40359 0.07090
228.45269 0.07085
228.50177 0.07080
228.55087 0.07075
228.59997 0.07070
228.64904 0.07065
228.69814 0.07060
228.74722 0.07054
228.79630 0.07049
228.84538 0.07044
228.89449 0.07039
228.94357 0.07034
228.99266 0.07029
229.04172 0.07024
229.09083 0.07019
229.13990 0.07013
229.18898 0.07008
229.23809 0.07003
229.28718 0.06998
229.33626 0.06993
229.38537 0.06988
229.43445 0.06983
229.48352 0.06977
229.53260 0.06973
229.58168 0.06967
229.63078 0.06962
229.67989 0.06957
229.72897 0.06952
229.77805 0.06947
229.82713 0.06942
229.87622 0.06937
229.92531 0.06931
229.97440 0.06927
230.02348 0.06921
230.07256 0.06916
230.12166 0.06911
230.17074 0.06906
230.21984 0.06901
230.26890 0.06896
230.31801 0.06891
230.36709 0.06886
230.41620 0.06880
230.46528 0.06875
230.51438 0.06870
230.56346 0.06865
230.61252 0.06860
230.66160 0.06855
230.71072 0.06850
230.75981 0.06845
230.80889 0.06839
230.85795 0.06834
230.90706 0.06829
230.95615 0.06824
231.00524 0.06819
231.05432 0.06814
231.10341 0.06809
231.15250 0.06803
231.20158 0.06798
231.25065 0.06793
231.29976 0.06788
231.34886 0.06783
231.39792 0.06778
231.44703 0.06773
231.49610 0.06768
231.54520 0.06763
231.59427 0.06757
231.64339 0.06752
231.69246 0.06747
231.74154 0.06742
231.79064 0.06737
231.83973 0.06732
231.88881 0.06727
231.93791 0.06722
231.98700 0.06717
232.03606 0.06712
232.08516 0.06706
232.13424 0.06701
232.18332 0.06696
232.23243 0.06691
232.28150 0.06686
232.33059 0.06681
232.37969 0.06675
232.42877 0.06671
232.47786 0.06665
232.52692 0.06660
232.57604 0.06655
232.62513 0.06650
232.67418 0.06645
232.72331 0.06640
232.77237 0.06635
232.82146 0.06630
232.87057 0.06624
232.91967 0.06619
232.96873 0.06614
233.01784 0.06609
233.06692 0.06604
233.11599 0.06599
233.16506 0.06594
233.21415 0.06589
233.26325 0.06584
233.31234 0.06578
233.36144 0.06573
233.41052 0.06568
233.45963 0.06563
233.50869 0.06558
233.55778 0.06553
233.60689 0.06548
233.65597 0.06543
233.70504 0.06538
233.75412 0.06532
233.80321 0.06527
233.85232 0.06522
233.90138 0.06517
233.95049 0.06512
233.99954 0.06507
234.04865 0.06502
234.09774 0.06497
234.14683 0.06491
234.19590 0.06486
234.24500 0.06481
234.29407 0.06476
234.34317 0.06471
234.39227 0.06466
234.44135 0.06461
234.49043 0.06455
234.53951 0.06451
234.58861 0.06445
234.63773 0.06440
234.68676 0.06435
234.73590 0.06430
234.78494 0.06425
234.83405 0.06420
234.88317 0.06415
234.93224 0.06409
234.98132 0.06404
235.03041 0.06399
235.07948 0.06394
235.12859 0.06389
235.17765 0.06384
235.22677 0.06379
235.27582 0.06374
235.32492 0.06369
235.37399 0.06363
235.42309 0.06358
235.47220 0.06353
235.52129 0.06348
235.57036 0.06343
235.61945 0.06338
235.66851 0.06333
235.71763 0.06328
235.76671 0.06322
235.81582 0.06317
235.86489 0.06312
235.91397 0.06307
235.96306 0.06302
236.01216 0.06297
236.06124 0.06292
236.11033 0.06287
236.15942 0.06281
236.20851 0.06276
236.25760 0.06271
236.30669 0.06266
236.35577 0.06261
236.40485 0.06256
236.45394 0.06251
236.50304 0.06246
236.55210 0.06241
236.60118 0.06236
236.65030 0.06230
236.69937 0.06225
236.74843 0.06220
236.79756 0.06215
236.84664 0.06210
236.89571 0.06205
236.94481 0.06199
236.99392 0.06194
237.04299 0.06189
237.09209 0.06184
237.14113 0.06179
237.19025 0.06174
237.23934 0.06169
237.28842 0.06164
237.33752 0.06159
237.38659 0.06154
237.43570 0.06148
237.48475 0.06143
237.53387 0.06138
237.58295 0.06133
237.63205 0.06128
237.68114 0.06123
237.73023 0.06118
237.77929 0.06113
237.82839 0.06107
237.87748 0.06102
237.92656 0.06097
237.97564 0.06092
238.02473 0.06087
238.07380 0.06082
238.12290 0.06077
238.17199 0.06072
238.22109 0.06067
238.27015 0.06061
238.31926 0.06056
238.36836 0.06051
238.41744 0.06046
238.46652 0.06041
238.51559 0.06036
238.56469 0.06031
238.61377 0.06026
238.66288 0.06020
238.71195 0.06015
238.76104 0.06010
238.81011 0.06005
238.85922 0.06000
238.90828 0.05995
238.95741 0.05990
239.00647 0.05984
239.05555 0.05979
239.10467 0.05975
239.15374 0.05969
239.20282 0.05964
239.25193 0.05959
239.30100 0.05954
239.35010 0.05949
239.39916 0.05944
239.44828 0.05939
239.49736 0.05934
239.54644 0.05928
239.59553 0.05923
239.64460 0.05918
239.69370 0.05913
239.74277 0.05908
239.79187 0.05903
239.84096 0.05898
239.89004 0.05892
239.93915 0.05887
239.98822 0.05882
240.03731 0.05877
240.08643 0.05872
240.13546 0.05867
240.18460 0.05862
240.23368 0.05857
240.28278 0.05852
240.33184 0.05846
240.38093 0.05841
240.43001 0.05836
240.47909 0.05831
240.52817 0.05826
240.57728 0.05821
240.62633 0.05816
240.67543 0.05811
240.72455 0.05805
240.77363 0.05800
240.82274 0.05795
240.87181 0.05790
240.92088 0.05785
240.96995 0.05780
241.01907 0.05775
241.06815 0.05769
241.11724 0.05764
241.16629 0.05759
241.21540 0.05754
241.26452 0.05749
241.31358 0.05744
241.36269 0.05739
241.41174 0.05734
241.46083 0.05729
241.50996 0.05724
241.55902 0.05719
241.60812 0.05713
241.65720 0.05708
241.70629 0.05703
241.75538 0.05698
241.80448 0.05693
241.85355 0.05688
241.90263 0.05683
241.95170 0.05677
242.00081 0.05672
242.04990 0.05667
242.09899 0.05662
242.14809 0.05657
242.19713 0.05652
242.24624 0.05647
242.29533 0.05642
242.34444 0.05637
242.39348 0.05631
242.44262 0.05626
242.49166 0.05621
242.54080 0.05616
242.58986 0.05611
242.63894 0.05606
242.68803 0.05601
242.73713 0.05595
242.78620 0.05590
242.83532 0.05585
242.88436 0.05580
242.93348 0.05575
242.98259 0.05570
243.03166 0.05565
243.08074 0.05560
243.12980 0.05555
243.17891 0.05550
243.22798 0.05544
243.27706 0.05539
243.32616 0.05534
243.37528 0.05529
243.42437 0.05524
243.47343 0.05519
243.52252 0.05514
243.57160 0.05508
243.62072 0.05503
243.66976 0.05498
243.71885 0.05493
243.76793 0.05488
243.81704 0.05483
243.86614 0.05478
243.91520 0.05473
243.96429 0.05468
244.01339 0.05462
244.06247 0.05457
244.11156 0.05452
244.16065 0.05447
244.20973 0.05442
244.25883 0.05437
244.30793 0.05432
244.35700 0.05427
244.40607 0.05422
244.45518 0.05416
244.50426 0.05411
244.55337 0.05406
244.60244 0.05401
244.65155 0.05396
244.70063 0.05391
244.74971 0.05386
244.79881 0.05380
244.84789 0.05375
244.89694 0.05370
244.94608 0.05365
244.99514 0.05360
245.04423 0.05355
245.09329 0.05350
245.14239 0.05345
245.19147 0.05340
245.24058 0.05335
245.28966 0.05329
245.33877 0.05324
245.38785 0.05319
245.43693 0.05314
245.48601 0.05309
245.53510 0.05304
245.58420 0.05299
245.63325 0.05294
245.68236 0.05288
245.73145 0.05283
245.78053 0.05278
245.82963 0.05273
245.87869 0.05268
245.92780 0.05263
245.97690 0.05258
246.02599 0.05253
246.07509 0.05248
246.12415 0.05242
246.17322 0.05237
246.22235 0.05232
246.27143 0.05227
246.32052 0.05222
246.36959 0.05217
246.41866 0.05212
246.46778 0.05207
246.51682 0.05201
246.56596 0.05196
246.61502 0.05191
246.66412 0.05186
246.71319 0.05181
246.76229 0.05176
246.81134 0.05171
246.86049 0.05166
246.90957 0.05161
246.95865 0.05156
247.00774 0.05150
247.05682 0.05145
247.10589 0.05140
247.15501 0.05135
247.20406 0.05130
247.25315 0.05125
247.30224 0.05119
247.35136 0.05114
247.40042 0.05109
247.44949 0.05104
247.49860 0.05099
247.54770 0.05094
247.59677 0.05089
247.64587 0.05084
247.69496 0.05079
247.74405 0.05073
247.79314 0.05068
247.84221 0.05063
247.89131 0.05058
247.94037 0.05053
247.98949 0.05048
248.03855 0.05043
248.08761 0.05037
248.13673 0.05033
248.18582 0.05027
248.23489 0.05022
248.28398 0.05017
248.33310 0.05012
248.38217 0.05007
248.43124 0.05002
248.48037 0.04997
248.52940 0.04992
248.57853 0.04986
248.62760 0.04981
248.67670 0.04976
248.72577 0.04971
248.77490 0.04966
248.82396 0.04961
248.87308 0.04956
248.92211 0.04951
248.97122 0.04946
249.02029 0.04940
249.06940 0.04935
249.11849 0.04930
249.16758 0.04925
249.21665 0.04920
249.26573 0.04915
249.31483 0.04910
249.36394 0.04905
249.41301 0.04900
249.46210 0.04894
249.51120 0.04889
249.56026 0.04884
249.60933 0.04879
249.65841 0.04874
249.70756 0.04869
249.75662 0.04864
249.80572 0.04858
249.85478 0.04853
249.90385 0.04848
249.95299 0.04843
250.00207 0.04838
250.05116 0.04833
250.10022 0.04828
250.14931 0.04823
250.19842 0.04817
250.24749 0.04813
250.29659 0.04807
250.34567 0.04802
250.39476 0.04797
250.44387 0.04792
250.49290 0.04787
250.54201 0.04782
250.59114 0.04777
250.64021 0.04771
250.68928 0.04767
250.73840 0.04761
250.78748 0.04756
250.83654 0.04751
250.88561 0.04746
250.93473 0.04741
250.98378 0.04736
251.03291 0.04731
251.08198 0.04725
251.13109 0.04720
251.18018 0.04715
251.22921 0.04710
251.27832 0.04705
251.32741 0.04700
251.37648 0.04695
251.42557 0.04690
251.47467 0.04684
251.52375 0.04679
251.57288 0.04674
251.62196 0.04669
251.67101 0.04664
251.72012 0.04659
251.76923 0.04654
251.81831 0.04649
251.86740 0.04644
251.91649 0.04638
251.96556 0.04633
252.01466 0.04628
252.06374 0.04623
252.11281 0.04618
252.16189 0.04613
252.21095 0.04608
252.26007 0.04603
252.30912 0.04597
252.35826 0.04592
252.40732 0.04587
252.45645 0.04582
252.50554 0.04577
252.55456 0.04572
252.60371 0.04567
252.65274 0.04562
252.70186 0.04556
252.75095 0.04551
252.80001 0.04546
252.84915 0.04541
252.89821 0.04536
252.94731 0.04531
252.99637 0.04526
253.04549 0.04521
253.09458 0.04516
253.14363 0.04511
253.19274 0.04505
253.24183 0.04500
253.29091 0.04495
253.33999 0.04490
253.38912 0.04485
253.43816 0.04480
253.48727 0.04475
253.53631 0.04470
253.58546 0.04464
253.63454 0.04459
253.68361 0.04454
253.73269 0.04449
253.78175 0.04444
253.83087 0.04439
253.87994 0.04434
253.92904 0.04429
253.97809 0.04423
254.02723 0.04418
254.07634 0.04413
254.12542 0.04408
254.17452 0.04403
254.22359 0.04398
254.27262 0.04393
254.32173 0.04388
254.37081 0.04383
254.41991 0.04377
254.46900 0.04372
254.51807 0.04367
254.56716 0.04362
254.61623 0.04357
254.66534 0.04352
254.71446 0.04347
254.76354 0.04341
254.81262 0.04337
254.86172 0.04331
254.91080 0.04326
254.95985 0.04321
255.00897 0.04316
255.05804 0.04311
255.10711 0.04306
255.15620 0.04301
255.20533 0.04296
255.25440 0.04290
255.30349 0.04285
255.35255 0.04280
255.40171 0.04275
255.45076 0.04270
255.49988 0.04265
255.54897 0.04260
255.59801 0.04255
255.64713 0.04249
255.69620 0.04244
255.74524 0.04239
255.79435 0.04234
255.84346 0.04229
255.89258 0.04224
255.94160 0.04219
255.99074 0.04213
256.03980 0.04208
256.08891 0.04203
256.13795 0.04198
256.18705 0.04193
256.23616 0.04188
256.28520 0.04183
256.33434 0.04178
256.38344 0.04173
256.43251 0.04167
256.48162 0.04162
256.53066 0.04157
256.57979 0.04152
256.62886 0.04147
256.67796 0.04142
256.72699 0.04137
256.77607 0.04132
256.82520 0.04126
256.87424 0.04121
256.92336 0.04116
256.97244 0.04111
257.02153 0.04106
257.07065 0.04101
257.11974 0.04096
257.16882 0.04091
257.21794 0.04086
257.26700 0.04081
257.31603 0.04075
257.36513 0.04070
257.41422 0.04065
257.46335 0.04060
257.51241 0.04055
257.56150 0.04050
257.61060 0.04045
257.65967 0.04039
257.70874 0.04034
257.75787 0.04029
257.80692 0.04024
257.85603 0.04019
257.90512 0.04014
257.95419 0.04009
258.00329 0.04004
258.05236 0.03998
258.10145 0.03994
258.15054 0.03988
258.19963 0.03983
258.24871 0.03978
258.29778 0.03973
258.34691 0.03968
258.39600 0.03963
258.44509 0.03957
258.49416 0.03952
258.54324 0.03947
258.59235 0.03942
258.64143 0.03937
258.69055 0.03932
258.73960 0.03927
258.78872 0.03922
258.83777 0.03917
258.88684 0.03912
258.93599 0.03906
258.98506 0.03901
259.03412 0.03896
259.08320 0.03891
259.13233 0.03886
259.18139 0.03881
259.23050 0.03876
259.27954 0.03870
259.32870 0.03865
259.37775 0.03860
259.42685 0.03855
259.47592 0.03850
259.52499 0.03845
259.57410 0.03840
259.62318 0.03835
259.67227 0.03830
259.72136 0.03825
259.77040 0.03819
259.81951 0.03814
259.86857 0.03809
259.91771 0.03804
259.96679 0.03799
260.01589 0.03794
260.06496 0.03789
260.11408 0.03784
260.16312 0.03778
260.21227 0.03773
260.26132 0.03768
260.31037 0.03763
260.35953 0.03758
260.40854 0.03753
260.45763 0.03748
260.50674 0.03743
260.55582 0.03737
260.60490 0.03733
260.65400 0.03727
260.70309 0.03722
260.75219 0.03717
260.80126 0.03712
260.85033 0.03707
260.89943 0.03702
260.94850 0.03697
260.99758 0.03692
261.04670 0.03686
261.09581 0.03681
261.14489 0.03676
261.19400 0.03671
261.24309 0.03666
261.29218 0.03661
261.34122 0.03655
261.39031 0.03650
261.43943 0.03646
261.48850 0.03640
261.53759 0.03635
261.58669 0.03630
261.63576 0.03625
261.68488 0.03620
261.73394 0.03615
261.78300 0.03609
261.83209 0.03604
261.88122 0.03599
261.93031 0.03594
261.97942 0.03589
262.02845 0.03584
262.07752 0.03579
262.12666 0.03574
262.17575 0.03569
262.22480 0.03563
262.27393 0.03558
262.32299 0.03553
262.37210 0.03548
262.42112 0.03543
262.47025 0.03538
262.51933 0.03533
262.56842 0.03528
262.61750 0.03522
262.66660 0.03518
262.71570 0.03512
262.76474 0.03507
262.81387 0.03502
262.86293 0.03497
262.91199 0.03492
262.96112 0.03487
263.01022 0.03482
263.05928 0.03476
263.10838 0.03471
263.15743 0.03466
263.20656 0.03461
263.25560 0.03456
263.30477 0.03451
263.35377 0.03446
263.40290 0.03441
263.45199 0.03435
263.50112 0.03430
263.55019 0.03425
263.59924 0.03420
263.64836 0.03415
263.69742 0.03410
263.74652 0.03405
263.79560 0.03400
263.84467 0.03394
263.89378 0.03389
263.94285 0.03384
263.99191 0.03379
264.04108 0.03374
264.09010 0.03369
264.13924 0.03364
264.18830 0.03359
264.23743 0.03354
264.28648 0.03349
264.33556 0.03343
264.38469 0.03338
264.43375 0.03333
264.48289 0.03328
264.53192 0.03323
264.58101 0.03318
264.63008 0.03313
264.67918 0.03308
264.72830 0.03302
264.77729 0.03297
264.82646 0.03292
264.87554 0.03287
264.92462 0.03282
264.97367 0.03277
265.02276 0.03272
265.07193 0.03267
265.12099 0.03262
265.17003 0.03256
265.21913 0.03251
265.26827 0.03246
265.31728 0.03241
265.36639 0.03236
265.41552 0.03231
265.46458 0.03226
265.51370 0.03220
265.56281 0.03215
265.61180 0.03210
265.66093 0.03205
265.70999 0.03200
265.75908 0.03195
265.80816 0.03190
265.85730 0.03185
265.90638 0.03180
265.95548 0.03175
266.00457 0.03169
266.05366 0.03164
266.10272 0.03159
266.15180 0.03154
266.20087 0.03149
266.24998 0.03144
266.29911 0.03139
266.34815 0.03134
266.39725 0.03128
266.44637 0.03123
266.49539 0.03118
266.54448 0.03113
266.59362 0.03108
266.64271 0.03103
266.69176 0.03098
266.74085 0.03093
266.78990 0.03088
266.83902 0.03082
266.88815 0.03077
266.93720 0.03072
266.98626 0.03067
267.03538 0.03062
267.08445 0.03057
267.13360 0.03052
267.18262 0.03047
267.23178 0.03041
267.28081 0.03036
267.32988 0.03031
267.37895 0.03026
267.42808 0.03021
267.47711 0.03016
267.52621 0.03011
267.57531 0.03006
267.62443 0.03000
267.67351 0.02995
267.72259 0.02990
267.77173 0.02985
267.82077 0.02980
267.86984 0.02975
267.91896 0.02970
267.96805 0.02964
268.01711 0.02960
268.06615 0.02954
268.11534 0.02949
268.16439 0.02944
268.21352 0.02939
268.26252 0.02934
268.31163 0.02929
268.36075 0.02924
268.40977 0.02919
268.45892 0.02913
268.50799 0.02908
268.55711 0.02903
268.60617 0.02898
268.65530 0.02893
268.70440 0.02888
268.75346 0.02883
268.80252 0.02877
268.85166 0.02872
268.90065 0.02867
268.94978 0.02862
268.99886 0.02857
269.04798 0.02852
269.09704 0.02847
269.14614 0.02842
269.19525 0.02836
269.24433 0.02832
269.29338 0.02826
269.34252 0.02821
269.39157 0.02816
269.44064 0.02811
269.48976 0.02806
269.53882 0.02801
269.58787 0.02796
269.63701 0.02790
269.68611 0.02785
269.73516 0.02780
269.78430 0.02775
269.83332 0.02770
269.88246 0.02765
269.93152 0.02760
269.98063 0.02755
270.02968 0.02749
270.07880 0.02745
270.12785 0.02739
270.17697 0.02734
270.22604 0.02729
270.27519 0.02724
270.32417 0.02719
270.37336 0.02714
270.42237 0.02709
270.47145 0.02703
270.52057 0.02699
270.56968 0.02693
270.61881 0.02688
270.66782 0.02683
270.71696 0.02678
270.76602 0.02673
270.81513 0.02668
270.86416 0.02663
270.91323 0.02657
270.96237 0.02652
271.01144 0.02647
271.06057 0.02642
271.10961 0.02637
271.15870 0.02632
271.20778 0.02627
271.25692 0.02622
271.30603 0.02616
271.35512 0.02611
271.40419 0.02606
271.45325 0.02601
271.50237 0.02596
271.55137 0.02591
271.60056 0.02586
271.64959 0.02581
271.69870 0.02575
271.74776 0.02570
271.79690 0.02565
271.84599 0.02560
271.89501 0.02555
271.94409 0.02550
271.99319 0.02545
272.04225 0.02540
272.09141 0.02535
272.14046 0.02530
272.18953 0.02524
272.23865 0.02519
272.28769 0.02514
272.33678 0.02509
272.38593 0.02504
272.43495 0.02499
272.48402 0.02494
272.53316 0.02488
272.58225 0.02483
272.63137 0.02478
272.68041 0.02473
272.72953 0.02468
272.77854 0.02463
272.82768 0.02458
272.87680 0.02453
272.92594 0.02448
272.97495 0.02442
273.02403 0.02437
273.07314 0.02432
273.12223 0.02427
273.17133 0.02422
273.22040 0.02417
273.26943 0.02412
273.31856 0.02407
273.36764 0.02402
273.41678 0.02396
273.46584 0.02391
273.51495 0.02386
273.56405 0.02381
273.61301 0.02376
273.66225 0.02371
273.71128 0.02366
273.76036 0.02360
273.80942 0.02356
273.85852 0.02350
273.90761 0.02345
273.95665 0.02340
274.00573 0.02335
274.05489 0.02330
274.10396 0.02325
274.15305 0.02319
274.20218 0.02314
274.25128 0.02309
274.30029 0.02304
274.34941 0.02299
274.39850 0.02294
274.44756 0.02289
274.49671 0.02284
274.54575 0.02279
274.59486 0.02274
274.64387 0.02268
274.69297 0.02263
274.74207 0.02258
274.79119 0.02253
274.84029 0.02248
274.88936 0.02243
274.93851 0.02238
274.98758 0.02232
275.03667 0.02228
275.08567 0.02222
275.13475 0.02217
275.18395 0.02212
275.23291 0.02207
275.28206 0.02202
275.33120 0.02197
275.38026 0.02192
275.42936 0.02187
275.47836 0.02181
275.52756 0.02176
275.57663 0.02171
275.62569 0.02166
275.67476 0.02161
275.72385 0.02156
275.77299 0.02151
275.82208 0.02145
275.87113 0.02140
275.92016 0.02135
275.96926 0.02130
276.01845 0.02125
276.06753 0.02120
276.11650 0.02115
276.16565 0.02110
276.21478 0.02105
276.26385 0.02099
276.31283 0.02094
276.36200 0.02089
276.41101 0.02084
276.46015 0.02079
276.50923 0.02074
276.55837 0.02069
276.60738 0.02064
276.65653 0.02058
276.70562 0.02053
276.75472 0.02048
276.80375 0.02043
276.85283 0.02038
276.90190 0.02033
276.95111 0.02028
277.00007 0.02023
277.04911 0.02018
277.09836 0.02012
277.14742 0.02007
277.19648 0.02002
277.24555 0.01997
277.29466 0.01992
277.34380 0.01987
277.39276 0.01982
277.44189 0.01976
277.49091 0.01971
277.54000 0.01966
277.58914 0.01961
277.63830 0.01956
277.68730 0.01951
277.73644 0.01946
277.78554 0.01941
277.83458 0.01936
277.88372 0.01930
277.93280 0.01925
277.98188 0.01920
278.03095 0.01915
278.08012 0.01910
278.12917 0.01905
278.17822 0.01900
278.22724 0.01895
278.27645 0.01890
278.32553 0.01885
278.37459 0.01879
278.42366 0.01874
278.47274 0.01869
278.52173 0.01864
278.57090 0.01859
278.62008 0.01854
278.66907 0.01849
278.71821 0.01844
278.76725 0.01838
278.81635 0.01833
278.86535 0.01828
278.91448 0.01823
278.96365 0.01818
279.01273 0.01813
279.06180 0.01808
279.11082 0.01803
279.15989 0.01797
279.20913 0.01792
279.25820 0.01787
279.30728 0.01782
279.35625 0.01777
279.40547 0.01772
279.45448 0.01767
279.50361 0.01762
279.55259 0.01757
279.60175 0.01751
279.65083 0.01746
279.69996 0.01741
279.74906 0.01736
279.79811 0.01731
279.84712 0.01726
279.89634 0.01721
279.94539 0.01716
279.99443 0.01711
280.04358 0.01705
280.09258 0.01700
280.14175 0.01695
280.19083 0.01690
280.23986 0.01685
280.28899 0.01680
280.33804 0.01675
280.38714 0.01670
280.43628 0.01664
280.48529 0.01659
280.53445 0.01654
280.58359 0.01649
280.63255 0.01644
280.68173 0.01639
280.73080 0.01634
280.77989 0.01628
280.82894 0.01623
280.87807 0.01618
280.92718 0.01613
280.97618 0.01608
281.02523 0.01603
281.07440 0.01598
281.12347 0.01593
281.17254 0.01588
281.22173 0.01583
281.27076 0.01577
281.31974 0.01572
281.36899 0.01567
281.41801 0.01562
281.46710 0.01557
281.51625 0.01552
281.56527 0.01547
281.61426 0.01542
281.66333 0.01536
281.71243 0.01531
281.76169 0.01526
281.81066 0.01521
281.85978 0.01516
281.90883 0.01511
281.95794 0.01506
282.00709 0.01501
282.05610 0.01496
282.10525 0.01490
282.15416 0.01485
282.20328 0.01480
282.25256 0.01475
282.30155 0.01470
282.35073 0.01465
282.39975 0.01460
282.44892 0.01455
282.49789 0.01449
282.54710 0.01444
282.59615 0.01439
282.64522 0.01434
282.69416 0.01429
282.74334 0.01424
282.79243 0.01419
282.84154 0.01414
282.89058 0.01408
282.93968 0.01403
282.98886 0.01398
283.03791 0.01393
283.08684 0.01388
283.13603 0.01383
283.18510 0.01378
283.23419 0.01373
283.28328 0.01368
283.33243 0.01362
283.38150 0.01357
283.43056 0.01352
283.47977 0.01347
283.52874 0.01342
283.57775 0.01337
283.62691 0.01332
283.67600 0.01327
283.72501 0.01321
283.77421 0.01316
283.82330 0.01311
283.87228 0.01306
283.92158 0.01301
283.97047 0.01296
284.01971 0.01291
284.06862 0.01286
284.11780 0.01281
284.16689 0.01275
284.21602 0.01270
284.26506 0.01265
284.31414 0.01260

