#  Created by Sandify
#  https://sandify.org
#  Version: 0.2.8
#
#  Machine type: Polar
#    Max radius (mm): 100
#    Start point: none
#    End point: none
#  Content type: shape
#  Layer:
#    Shape: Circle
#    Name: polygon
#    Number of lobes: 1
#    Direction: clockwise
#    Visible: true
#    Initial width: 4
#    Initial height: 4
#    X offset: 2
#    Y offset: 10
#    Rotate (degrees): 0
#    Reverse path: true
#    Number of loops: 40
#    When transforming shape: smear
#    Scale: true
#      Scale (+/-): 61
#      Scale by: function
#        undefined: i
#    Spin: false
#    Track: true
#      Track size: 10
#      Track length: 0.3
#      Number of loops at each track position: 1
#      Scale track: false
#    Fine tuning:
#      Connect to next layer: line
#      Draw portion of path (%): 100
#      Backtrack at end (%): 0
#      Rotate starting point (%): 0
#  Reverse export path: false
#
# File name: 'spiral_finer_rotated'
# File type: thetarho
#

1.61890 0.31364
1.63899 0.31351
1.65908 0.31350
1.66702 0.31353
1.68712 0.31339
1.70722 0.31338
1.71515 0.31341
1.73525 0.31326
1.75536 0.31324
1.76330 0.31327
1.78341 0.31312
1.80353 0.31309
1.81146 0.31312
1.83158 0.31296
1.85171 0.31293
1.85963 0.31295
1.87976 0.31278
1.89990 0.31275
1.90783 0.31277
1.92798 0.31260
1.94813 0.31256
1.95606 0.31257
1.97622 0.31240
1.99638 0.31235
2.00432 0.31237
2.02448 0.31219
2.04467 0.31214
2.05259 0.31215
2.07277 0.31197
2.09297 0.31191
2.10090 0.31192
2.12109 0.31174
2.14130 0.31167
2.14923 0.31169
2.16944 0.31149
2.18967 0.31143
2.19760 0.31143
2.21783 0.31124
2.23807 0.31117
2.24600 0.31118
2.26624 0.31098
2.28650 0.31090
2.29443 0.31091
2.31469 0.31070
2.33497 0.31063
2.34290 0.31063
2.36318 0.31042
2.38347 0.31034
2.39141 0.31034
2.41170 0.31013
2.43202 0.31005
2.43996 0.31005
2.46027 0.30984
2.48061 0.30975
2.48854 0.30976
2.50887 0.30954
2.52923 0.30945
2.53716 0.30945
2.55752 0.30923
2.57789 0.30914
2.58583 0.30914
2.60621 0.30892
2.62660 0.30882
2.63454 0.30882
2.65494 0.30860
2.67535 0.30851
2.68329 0.30850
2.70371 0.30828
2.72415 0.30818
2.73208 0.30818
2.75252 0.30795
2.77298 0.30786
2.78092 0.30785
2.80138 0.30763
2.82186 0.30753
2.82980 0.30753
2.85028 0.30730
2.87078 0.30720
2.87873 0.30720
2.89923 0.30697
2.91976 0.30687
2.92769 0.30687
2.94822 0.30664
2.96877 0.30654
2.97671 0.30654
2.99725 0.30631
3.01782 0.30621
3.02577 0.30621
3.04634 0.30598
3.06693 0.30588
3.07486 0.30588
3.09545 0.30565
3.11607 0.30556
3.12400 0.30555
3.14462 0.30533
3.16525 0.30523
3.17320 0.30523
3.19383 0.30500
3.21449 0.30491
3.22243 0.30491
3.24308 0.30468
3.26376 0.30459
3.27170 0.30459
3.29238 0.30437
3.31308 0.30428
3.32101 0.30428
3.34171 0.30406
3.36243 0.30397
3.37036 0.30397
3.39108 0.30376
3.41182 0.30367
3.41975 0.30367
3.44049 0.30346
3.46126 0.30337
3.46918 0.30338
3.48995 0.30316
3.51073 0.30308
3.51865 0.30309
3.53943 0.30288
3.56023 0.30280
3.56814 0.30281
3.58895 0.30260
3.60977 0.30253
3.61768 0.30253
3.63850 0.30233
3.65934 0.30226
3.66726 0.30227
3.68810 0.30207
3.70896 0.30201
3.71686 0.30201
3.73772 0.30182
3.75859 0.30175
3.76648 0.30176
3.78736 0.30158
3.80825 0.30152
3.81614 0.30153
3.83704 0.30134
3.85794 0.30129
3.86582 0.30130
3.88673 0.30112
3.90765 0.30107
3.91553 0.30108
3.93645 0.30091
3.95739 0.30086
3.96527 0.30088
3.98620 0.30071
4.00715 0.30066
4.01501 0.30068
4.03596 0.30051
4.05693 0.30048
4.06478 0.30050
4.08575 0.30033
4.10673 0.30030
4.11458 0.30032
4.13556 0.30016
4.15655 0.30014
4.16437 0.30016
4.18536 0.30001
4.20636 0.29998
4.21418 0.30001
4.23518 0.29986
4.25619 0.29985
4.26402 0.29987
4.28503 0.29973
4.30605 0.29972
4.31385 0.29975
4.33487 0.29961
4.35590 0.29960
4.36368 0.29963
4.38471 0.29950
4.40575 0.29949
4.41353 0.29953
4.43456 0.29940
4.45560 0.29940
4.46338 0.29944
4.48442 0.29931
4.50547 0.29932
4.51323 0.29936
4.53428 0.29924
4.55533 0.29925
4.56306 0.29929
4.58412 0.29917
4.60517 0.29919
4.61291 0.29923
4.63397 0.29912
4.65503 0.29914
4.66275 0.29918
4.68381 0.29908
4.70487 0.29911
4.71257 0.29915
4.73363 0.29905
4.75469 0.29908
4.76239 0.29913
4.78345 0.29903
4.80452 0.29907
4.81220 0.29912
4.83326 0.29903
4.85433 0.29907
4.86198 0.29912
4.88304 0.29903
4.90411 0.29908
4.91177 0.29912
4.93283 0.29904
4.95390 0.29909
4.96152 0.29914
4.98258 0.29906
5.00365 0.29912
5.01127 0.29917
5.03233 0.29910
5.05339 0.29915
5.06099 0.29921
5.08205 0.29914
5.10311 0.29920
5.11069 0.29926
5.13175 0.29919
5.15280 0.29925
5.16037 0.29931
5.18142 0.29925
5.20247 0.29932
5.21003 0.29937
5.23107 0.29931
5.25212 0.29939
5.25965 0.29944
5.28069 0.29939
5.30173 0.29946
5.30925 0.29952
5.33029 0.29947
5.35132 0.29954
5.35883 0.29960
5.37986 0.29955
5.40089 0.29964
5.40837 0.29970
5.42939 0.29965
5.45041 0.29973
5.45789 0.29979
5.47891 0.29974
5.49992 0.29983
5.50738 0.29989
5.52838 0.29985
5.54939 0.29994
5.55684 0.30000
5.57784 0.29996
5.59884 0.30005
5.60626 0.30011
5.62726 0.30007
5.64825 0.30016
5.65565 0.30023
5.67664 0.30019
5.69762 0.30028
5.70502 0.30034
5.72600 0.30031
5.74697 0.30040
5.75434 0.30046
5.77531 0.30043
5.79628 0.30052
5.80364 0.30059
5.82461 0.30055
5.84556 0.30065
5.85291 0.30071
5.87386 0.30068
5.89481 0.30077
5.90214 0.30084
5.92308 0.30080
5.94402 0.30090
5.95134 0.30096
5.97227 0.30093
5.99320 0.30102
6.00051 0.30109
6.02143 0.30105
6.04235 0.30115
6.04964 0.30121
6.07056 0.30118
6.09147 0.30127
6.09875 0.30134
6.11965 0.30130
6.14056 0.30140
6.14781 0.30146
6.16871 0.30143
6.18961 0.30152
6.19686 0.30158
6.21775 0.30155
6.23863 0.30164
6.24587 0.30170
6.26675 0.30166
6.28763 0.30176
6.29485 0.30182
6.31573 0.30178
6.33660 0.30187
6.34381 0.30193
6.36467 0.30189
6.38554 0.30198
6.39273 0.30204
6.41359 0.30200
6.43445 0.30209
6.44163 0.30215
6.46248 0.30210
6.48333 0.30219
6.49050 0.30225
6.51135 0.30220
6.53219 0.30229
6.53935 0.30235
6.56018 0.30230
6.58102 0.30238
6.58817 0.30244
6.60900 0.30238
6.62983 0.30246
6.63696 0.30252
6.65779 0.30247
6.67861 0.30255
6.68574 0.30260
6.70656 0.30255
6.72738 0.30262
6.73450 0.30268
6.75532 0.30262
6.77613 0.30269
6.78324 0.30274
6.80405 0.30268
6.82486 0.30275
6.83197 0.30280
6.85277 0.30274
6.87358 0.30281
6.88066 0.30286
6.90146 0.30279
6.92227 0.30285
6.92935 0.30290
6.95015 0.30283
6.97095 0.30289
6.97802 0.30295
6.99882 0.30287
7.01962 0.30293
7.02668 0.30298
7.04748 0.30290
7.06827 0.30295
7.07533 0.30300
7.09613 0.30292
7.11692 0.30297
7.12397 0.30302
7.14476 0.30294
7.16556 0.30298
7.17260 0.30303
7.19339 0.30294
7.21419 0.30299
7.22122 0.30303
7.24202 0.30294
7.26281 0.30298
7.26984 0.30302
7.29063 0.30293
7.31142 0.30297
7.31845 0.30301
7.33924 0.30292
7.36004 0.30295
7.36706 0.30299
7.38785 0.30289
7.40865 0.30292
7.41567 0.30296
7.43647 0.30286
7.45727 0.30288
7.46427 0.30292
7.48507 0.30281
7.50588 0.30284
7.51288 0.30288
7.53368 0.30277
7.55449 0.30279
7.56148 0.30282
7.58229 0.30271
7.60310 0.30273
7.61010 0.30276
7.63091 0.30265
7.65173 0.30266
7.65871 0.30270
7.67953 0.30258
7.70035 0.30259
7.70734 0.30262
7.72816 0.30250
7.74899 0.30251
7.75597 0.30254
7.77680 0.30241
7.79763 0.30242
7.80462 0.30245
7.82545 0.30232
7.84628 0.30232
7.85326 0.30235
7.87410 0.30222
7.89495 0.30222
7.90192 0.30225
7.92276 0.30211
7.94362 0.30211
7.95059 0.30214
7.97144 0.30200
7.99230 0.30200
7.99928 0.30203
8.02013 0.30189
8.04100 0.30188
8.04797 0.30190
8.06884 0.30176
8.08972 0.30175
8.09668 0.30178
8.11756 0.30163
8.13845 0.30162
8.14541 0.30165
8.16629 0.30150
8.18719 0.30148
8.19416 0.30151
8.21505 0.30136
8.23596 0.30135
8.24292 0.30137
8.26383 0.30122
8.28474 0.30120
8.29169 0.30122
8.31261 0.30107
8.33353 0.30105
8.34050 0.30107
8.36142 0.30092
8.38236 0.30090
8.38931 0.30092
8.41024 0.30077
8.43119 0.30074
8.43815 0.30076
8.45910 0.30061
8.48005 0.30058
8.48700 0.30061
8.50796 0.30045
8.52893 0.30042
8.53588 0.30044
8.55685 0.30029
8.57783 0.30026
8.58477 0.30028
8.60575 0.30012
8.62675 0.30009
8.63369 0.30011
8.65469 0.29995
8.67569 0.29993
8.68263 0.29995
8.70364 0.29979
8.72465 0.29976
8.73159 0.29978
8.75261 0.29962
8.77364 0.29959
8.78057 0.29961
8.80160 0.29945
8.82264 0.29942
8.82957 0.29944
8.85061 0.29928
8.87166 0.29925
8.87859 0.29927
8.89965 0.29911
8.92071 0.29908
8.92764 0.29910
8.94870 0.29894
8.96978 0.29891
8.97671 0.29893
8.99778 0.29877
9.01887 0.29874
9.02578 0.29876
9.04687 0.29861
9.06797 0.29858
9.07489 0.29860
9.09599 0.29844
9.11710 0.29841
9.12401 0.29843
9.14512 0.29827
9.16625 0.29825
9.17316 0.29827
9.19428 0.29811
9.21541 0.29809
9.22232 0.29811
9.24345 0.29795
9.26459 0.29793
9.27150 0.29795
9.29264 0.29780
9.31380 0.29777
9.32070 0.29780
9.34185 0.29764
9.36302 0.29762
9.36991 0.29764
9.39107 0.29749
9.41225 0.29747
9.41913 0.29750
9.44031 0.29735
9.46150 0.29733
9.46838 0.29735
9.48957 0.29720
9.51077 0.29719
9.51764 0.29721
9.53884 0.29706
9.56004 0.29705
9.56692 0.29707
9.58812 0.29693
9.60934 0.29692
9.61620 0.29694
9.63742 0.29680
9.65865 0.29679
9.66549 0.29681
9.68672 0.29667
9.70795 0.29666
9.71480 0.29669
9.73604 0.29655
9.75728 0.29654
9.76412 0.29657
9.78537 0.29643
9.80662 0.29643
9.81344 0.29645
9.83469 0.29632
9.85595 0.29631
9.86278 0.29634
9.88404 0.29621
9.90531 0.29621
9.91212 0.29624
9.93339 0.29611
9.95467 0.29611
9.96147 0.29614
9.98274 0.29601
10.00402 0.29602
10.01082 0.29604
10.03211 0.29592
10.05340 0.29592
10.06017 0.29596
10.08146 0.29583
10.10275 0.29584
10.10953 0.29587
10.13082 0.29575
10.15212 0.29576
10.15889 0.29579
10.18019 0.29567
10.20149 0.29569
10.20825 0.29572
10.22955 0.29560
10.25087 0.29562
10.25760 0.29565
10.27891 0.29553
10.30023 0.29555
10.30696 0.29559
10.32828 0.29547
10.34960 0.29549
10.35631 0.29553
10.37763 0.29541
10.39896 0.29544
10.40567 0.29547
10.42699 0.29536
10.44832 0.29539
10.45501 0.29542
10.47633 0.29532
10.49767 0.29534
10.50434 0.29538
10.52567 0.29527
10.54701 0.29530
10.55368 0.29534
10.57501 0.29524
10.59635 0.29527
10.60300 0.29531
10.62433 0.29520
10.64567 0.29524
10.65232 0.29527
10.67365 0.29517
10.69500 0.29521
10.70163 0.29524
10.72297 0.29515
10.74431 0.29518
10.75092 0.29522
10.77226 0.29512
10.79361 0.29516
10.80021 0.29520
10.82155 0.29510
10.84290 0.29514
10.84949 0.29518
10.87083 0.29509
10.89218 0.29513
10.89875 0.29517
10.92009 0.29508
10.94144 0.29512
10.94800 0.29516
10.96935 0.29507
10.99070 0.29511
10.99724 0.29515
11.01859 0.29506
11.03994 0.29510
11.04646 0.29514
11.06781 0.29505
11.08916 0.29510
11.09567 0.29514
11.11702 0.29505
11.13837 0.29510
11.14487 0.29514
11.16621 0.29505
11.18757 0.29509
11.19405 0.29513
11.21540 0.29505
11.23675 0.29510
11.24321 0.29514
11.26456 0.29505
11.28591 0.29510
11.29237 0.29514
11.31372 0.29505
11.33507 0.29510
11.34151 0.29514
11.36286 0.29505
11.38421 0.29510
11.39063 0.29514
11.41198 0.29506
11.43333 0.29510
11.43974 0.29514
11.46109 0.29506
11.48244 0.29511
11.48883 0.29515
11.51018 0.29506
11.53152 0.29511
11.53791 0.29515
11.55925 0.29506
11.58060 0.29511
11.58697 0.29515
11.60832 0.29506
11.62967 0.29511
11.63602 0.29515
11.65737 0.29506
11.67872 0.29511
11.68506 0.29515
11.70641 0.29506
11.72775 0.29511
11.73407 0.29515
11.75542 0.29506
11.77677 0.29510
11.78309 0.29514
11.80443 0.29505
11.82578 0.29509
11.83208 0.29513
11.85343 0.29504
11.87478 0.29509
11.88106 0.29513
11.90241 0.29503
11.92376 0.29508
11.93003 0.29511
11.95138 0.29502
11.97273 0.29506
11.97899 0.29510
12.00034 0.29501
12.02170 0.29505
12.02794 0.29508
12.04929 0.29499
12.07064 0.29503
12.07688 0.29506
12.09823 0.29497
12.11959 0.29500
12.12581 0.29504
12.14716 0.29494
12.16852 0.29498
12.17473 0.29501
12.19608 0.29491
12.21744 0.29495
12.22363 0.29498
12.24499 0.29488
12.26636 0.29491
12.27254 0.29495
12.29390 0.29484
12.31527 0.29488
12.32143 0.29491
12.34280 0.29481
12.36417 0.29484
12.37033 0.29487
12.39170 0.29476
12.41307 0.29479
12.41922 0.29482
12.44059 0.29471
12.46196 0.29474
12.46810 0.29477
12.48948 0.29466
12.51086 0.29469
12.51698 0.29472
12.53836 0.29460
12.55974 0.29463
12.56587 0.29466
12.58725 0.29454
12.60864 0.29456
12.61474 0.29459
12.63613 0.29448
12.65752 0.29449
12.66363 0.29452
12.68502 0.29441
12.70642 0.29442
12.71251 0.29445
12.73390 0.29433
12.75531 0.29435
12.76139 0.29438
12.78279 0.29425
12.80420 0.29427
12.81027 0.29430
12.83168 0.29417
12.85310 0.29418
12.85917 0.29421
12.88058 0.29408
12.90200 0.29409
12.90806 0.29412
12.92948 0.29399
12.95091 0.29400
12.95696 0.29403
12.97838 0.29390
12.99982 0.29390
13.00587 0.29393
13.02730 0.29380
13.04874 0.29380
13.05477 0.29383
13.07622 0.29370
13.09767 0.29370
13.10370 0.29372
13.12515 0.29359
13.14661 0.29359
13.15263 0.29361
13.17409 0.29348
13.19556 0.29348
13.20158 0.29350
13.22305 0.29336
13.24452 0.29336
13.25053 0.29339
13.27201 0.29325
13.29349 0.29325
13.29950 0.29327
13.32098 0.29313
13.34247 0.29312
13.34847 0.29315
13.36996 0.29301
13.39146 0.29300
13.39746 0.29302
13.41896 0.29288
13.44047 0.29287
13.44647 0.29290
13.46798 0.29275
13.48950 0.29275
13.49548 0.29277
13.51700 0.29262
13.53853 0.29261
13.54451 0.29264
13.56604 0.29249
13.58758 0.29248
13.59356 0.29250
13.61510 0.29236
13.63665 0.29235
13.64262 0.29237
13.66417 0.29222
13.68573 0.29221
13.69170 0.29223
13.71326 0.29209
13.73483 0.29208
13.74080 0.29210
13.76237 0.29195
13.78395 0.29194
13.78991 0.29196
13.81149 0.29181
13.83308 0.29180
13.83904 0.29182
13.86063 0.29168
13.88223 0.29167
13.88819 0.29169
13.90978 0.29154
13.93139 0.29153
13.93736 0.29155
13.95896 0.29141
13.98058 0.29139
13.98653 0.29141
14.00815 0.29127
14.02978 0.29126
14.03573 0.29128
14.05736 0.29114
14.07900 0.29113
14.08494 0.29115
14.10658 0.29100
14.12823 0.29100
14.13418 0.29102
14.15583 0.29087
14.17749 0.29086
14.18342 0.29089
14.20508 0.29074
14.22675 0.29074
14.23269 0.29076
14.25436 0.29062
14.27604 0.29061
14.28197 0.29063
14.30365 0.29049
14.32534 0.29049
14.33127 0.29051
14.35296 0.29037
14.37465 0.29037
14.38058 0.29039
14.40228 0.29025
14.42398 0.29025
14.42991 0.29027
14.45162 0.29014
14.47333 0.29014
14.47925 0.29016
14.50097 0.29003
14.52269 0.29003
14.52860 0.29005
14.55032 0.28992
14.57206 0.28992
14.57798 0.28995
14.59971 0.28982
14.62144 0.28982
14.62735 0.28985
14.64909 0.28972
14.67084 0.28973
14.67674 0.28975
14.69849 0.28962
14.72024 0.28963
14.72615 0.28966
14.74790 0.28954
14.76966 0.28955
14.77556 0.28958
14.79732 0.28945
14.81908 0.28947
14.82497 0.28949
14.84674 0.28937
14.86851 0.28939
14.87440 0.28942
14.89617 0.28930
14.91794 0.28932
14.92384 0.28935
14.94562 0.28924
14.96740 0.28926
14.97328 0.28929
14.99506 0.28917
15.01685 0.28920
15.02272 0.28923
15.04451 0.28912
15.06630 0.28914
15.07217 0.28918
15.09396 0.28907
15.11576 0.28910
15.12162 0.28913
15.14341 0.28903
15.16520 0.28906
15.17107 0.28909
15.19286 0.28899
15.21466 0.28902
15.22052 0.28905
15.24232 0.28896
15.26412 0.28900
15.26997 0.28903
15.29176 0.28893
15.31357 0.28897
15.31941 0.28901
15.34121 0.28891
15.36301 0.28896
15.36886 0.28899
15.39066 0.28890
15.41246 0.28895
15.41829 0.28898
15.44009 0.28889
15.46189 0.28894
15.46771 0.28898
15.48952 0.28889
15.51132 0.28894
15.51714 0.28898
15.53894 0.28890
15.56075 0.28896
15.56655 0.28899
15.58835 0.28891
15.61015 0.28897
15.61595 0.28901
15.63775 0.28893
15.65955 0.28899
15.66534 0.28903
15.68714 0.28895
15.70894 0.28901
15.71472 0.28905
15.73652 0.28898
15.75831 0.28904
15.76408 0.28908
15.78587 0.28901
15.80767 0.28908
15.81343 0.28912
15.83522 0.28905
15.85701 0.28912
15.86276 0.28916
15.88455 0.28910
15.90633 0.28917
15.91207 0.28921
15.93386 0.28914
15.95564 0.28922
15.96137 0.28926
15.98315 0.28920
16.00493 0.28927
16.01065 0.28931
16.03243 0.28925
16.05421 0.28933
16.05991 0.28937
16.08168 0.28932
16.10345 0.28939
16.10914 0.28944
16.13091 0.28938
16.15267 0.28946
16.15836 0.28950
16.18012 0.28945
16.20188 0.28953
16.20755 0.28957
16.22931 0.28952
16.25106 0.28960
16.25673 0.28964
16.27848 0.28959
16.30023 0.28967
16.30587 0.28972
16.32761 0.28966
16.34936 0.28975
16.35498 0.28979
16.37673 0.28974
16.39846 0.28983
16.40408 0.28987
16.42582 0.28982
16.44755 0.28990
16.45315 0.28995
16.47488 0.28990
16.49661 0.28998
16.50220 0.29003
16.52392 0.28998
16.54565 0.29006
16.55122 0.29011
16.57293 0.29006
16.59465 0.29014
16.60021 0.29019
16.62192 0.29014
16.64363 0.29022
16.64917 0.29027
16.67088 0.29022
16.69258 0.29030
16.69811 0.29035
16.71981 0.29029
16.74151 0.29038
16.74703 0.29042
16.76872 0.29037
16.79041 0.29046
16.79592 0.29050
16.81761 0.29045
16.83930 0.29053
16.84478 0.29057
16.86646 0.29052
16.88814 0.29060
16.89362 0.29064
16.91529 0.29059
16.93697 0.29067
16.94243 0.29071
16.96410 0.29065
16.98577 0.29073
16.99120 0.29077
17.01287 0.29072
17.03454 0.29080
17.03996 0.29084
17.06163 0.29078
17.08329 0.29085
17.08870 0.29089
17.11036 0.29083
17.13202 0.29091
17.13741 0.29095
17.15907 0.29088
17.18072 0.29096
17.18611 0.29099
17.20776 0.29093
17.22941 0.29100
17.23477 0.29104
17.25642 0.29097
17.27807 0.29103
17.28342 0.29107
17.30507 0.29100
17.32672 0.29106
17.33205 0.29110
17.35369 0.29103
17.37533 0.29109
17.38065 0.29113
17.40230 0.29105
17.42394 0.29111
17.42924 0.29114
17.45088 0.29106
17.47252 0.29112
17.47781 0.29115
17.49945 0.29107
17.52109 0.29112
17.52637 0.29116
17.54801 0.29107
17.56965 0.29112
17.57491 0.29115
17.59655 0.29106
17.61820 0.29111
17.62344 0.29114
17.64508 0.29105
17.66672 0.29109
17.67195 0.29112
17.69359 0.29102
17.71523 0.29106
17.72045 0.29109
17.74210 0.29099
17.76375 0.29103
17.76895 0.29106
17.79060 0.29095
17.81225 0.29098
17.81743 0.29101
17.83908 0.29090
17.86074 0.29093
17.86591 0.29096
17.88757 0.29085
17.90923 0.29087
17.91439 0.29089
17.93604 0.29078
17.95771 0.29080
17.96286 0.29082
17.98452 0.29070
18.00619 0.29072
18.01133 0.29074
18.03299 0.29061
18.05467 0.29063
18.05980 0.29065
18.08147 0.29052
18.10316 0.29053
18.10827 0.29055
18.12995 0.29041
18.15165 0.29042
18.15674 0.29044
18.17843 0.29030
18.20014 0.29030
18.20522 0.29032
18.22692 0.29018
18.24863 0.29017
18.25370 0.29019
18.27541 0.29004
18.29714 0.29003
18.30219 0.29005
18.32391 0.28990
18.34564 0.28989
18.35070 0.28990
18.37243 0.28975
18.39417 0.28973
18.39921 0.28975
18.42095 0.28959
18.44270 0.28957
18.44773 0.28958
18.46949 0.28942
18.49126 0.28940
18.49628 0.28941
18.51804 0.28924
18.53983 0.28922
18.54484 0.28923
18.56662 0.28906
18.58841 0.28903
18.59341 0.28904
18.61521 0.28886
18.63702 0.28883
18.64201 0.28884
18.66382 0.28866
18.68564 0.28862
18.69062 0.28863
18.71244 0.28845
18.73429 0.28841
18.73926 0.28842
18.76111 0.28823
18.78296 0.28819
18.78793 0.28820
18.80978 0.28801
18.83166 0.28796
18.83661 0.28797
18.85849 0.28778
18.88038 0.28772
18.88533 0.28773
18.90722 0.28754
18.92913 0.28748
18.93407 0.28749
18.95598 0.28729
18.97791 0.28724
18.98284 0.28724
19.00477 0.28704
19.02672 0.28698
19.03165 0.28699
19.05360 0.28679
19.07557 0.28672
19.08048 0.28673
19.10245 0.28653
19.12444 0.28646
19.12936 0.28647
19.15135 0.28626
19.17336 0.28619
19.17827 0.28620
19.20028 0.28599
19.22231 0.28592
19.22721 0.28593
19.24924 0.28572
19.27129 0.28565
19.27618 0.28565
19.29823 0.28544
19.32031 0.28537
19.32520 0.28538
19.34727 0.28517
19.36937 0.28510
19.37426 0.28510
19.39635 0.28489
19.41846 0.28482
19.42335 0.28482
19.44546 0.28461
19.46760 0.28453
19.47248 0.28454
19.49462 0.28432
19.51678 0.28425
19.52164 0.28426
19.54380 0.28404
19.56598 0.28397
19.57086 0.28397
19.59304 0.28376
19.61524 0.28369
19.62011 0.28369
19.64232 0.28348
19.66454 0.28341
19.66940 0.28342
19.69162 0.28321
19.71387 0.28314
19.71873 0.28314
19.74098 0.28293
19.76325 0.28286
19.76810 0.28286
19.79037 0.28265
19.81266 0.28259
19.81752 0.28259
19.83981 0.28238
19.86212 0.28232
19.86697 0.28232
19.88928 0.28212
19.91161 0.28205
19.91646 0.28206
19.93880 0.28186
19.96115 0.28180
19.96599 0.28180
19.98835 0.28160
20.01072 0.28154
20.01556 0.28155
20.03794 0.28135
20.06033 0.28129
20.06518 0.28130
20.08757 0.28111
20.10998 0.28105
20.11482 0.28106
20.13723 0.28087
20.15967 0.28082
20.16449 0.28083
20.18693 0.28064
20.20938 0.28059
20.21421 0.28060
20.23666 0.28042
20.25913 0.28037
20.26396 0.28038
20.28643 0.28020
20.30891 0.28016
20.31375 0.28017
20.33623 0.28000
20.35873 0.27996
20.36355 0.27998
20.38605 0.27980
20.40857 0.27977
20.41339 0.27979
20.43591 0.27962
20.45844 0.27959
20.46327 0.27961
20.48580 0.27944
20.50834 0.27942
20.51316 0.27944
20.53570 0.27928
20.55826 0.27927
20.56308 0.27928
20.58563 0.27913
20.60820 0.27912
20.61301 0.27914
20.63558 0.27899
20.65816 0.27898
20.66297 0.27900
20.68555 0.27886
20.70814 0.27886
20.71295 0.27888
20.73554 0.27874
20.75814 0.27875
20.76294 0.27877
20.78554 0.27864
20.80815 0.27865
20.81294 0.27867
20.83555 0.27855
20.85817 0.27857
20.86296 0.27859
20.88558 0.27847
20.90820 0.27849
20.91299 0.27852
20.93561 0.27840
20.95824 0.27844
20.96302 0.27846
20.98565 0.27835
21.00828 0.27839
21.01306 0.27842
21.03569 0.27832
21.05832 0.27836
21.06310 0.27838
21.08573 0.27829
21.10836 0.27834
21.11313 0.27837
21.13576 0.27828
21.15840 0.27834
21.16316 0.27837
21.18579 0.27828
21.20843 0.27834
21.21318 0.27838
21.23582 0.27830
21.25845 0.27837
21.26320 0.27840
21.28583 0.27833
21.30847 0.27840
21.31320 0.27843
21.33583 0.27837
21.35846 0.27845
21.36320 0.27849
21.38582 0.27843
21.40844 0.27852
21.41316 0.27855
21.43578 0.27850
21.45840 0.27859
21.46311 0.27863
21.48573 0.27858
21.50834 0.27868
21.51305 0.27872
21.53565 0.27868
21.55825 0.27878
21.56296 0.27882
21.58555 0.27878
21.60814 0.27889
21.61284 0.27893
21.63542 0.27890
21.65800 0.27902
21.66269 0.27906
21.68526 0.27903
21.70783 0.27915
21.71251 0.27920
21.73508 0.27918
21.75764 0.27930
21.76230 0.27934
21.78485 0.27933
21.80739 0.27946
21.81205 0.27950
21.83459 0.27949
21.85712 0.27962
21.86177 0.27967
21.88429 0.27967
21.90681 0.27980
21.91144 0.27985
21.93395 0.27985
21.95645 0.27999
21.96108 0.28004
21.98357 0.28004
22.00606 0.28019
22.01066 0.28023
22.03315 0.28024
22.05561 0.28039
22.06020 0.28044
22.08267 0.28045
22.10512 0.28060
22.10971 0.28065
22.13215 0.28066
22.15459 0.28082
22.15916 0.28086
22.18159 0.28088
22.20401 0.28104
22.20857 0.28109
22.23098 0.28111
22.25338 0.28127
22.25792 0.28132
22.28031 0.28134
22.30269 0.28151
22.30723 0.28156
22.32960 0.28158
22.35196 0.28174
22.35648 0.28179
22.37884 0.28182
22.40118 0.28198
22.40568 0.28204
22.42801 0.28206
22.45034 0.28223
22.45483 0.28228
22.47714 0.28230
22.49945 0.28247
22.50392 0.28252
22.52621 0.28255
22.54850 0.28272
22.55296 0.28277
22.57524 0.28280
22.59750 0.28297
22.60194 0.28302
22.62420 0.28305
22.64645 0.28321
22.65088 0.28326
22.67311 0.28329
22.69534 0.28346
22.69975 0.28351
22.72197 0.28354
22.74418 0.28370
22.74857 0.28375
22.77078 0.28378
22.79296 0.28394
22.79736 0.28399
22.81954 0.28402
22.84171 0.28418
22.84607 0.28423
22.86824 0.28425
22.89039 0.28442
22.89474 0.28446
22.91688 0.28448
22.93901 0.28464
22.94334 0.28469
22.96547 0.28471
22.98759 0.28487
22.99191 0.28491
23.01402 0.28493
23.03612 0.28508
23.04042 0.28513
23.06252 0.28514
23.08460 0.28529
23.08888 0.28534
23.11096 0.28535
23.13303 0.28549
23.13730 0.28554
23.15937 0.28554
23.18142 0.28569
23.18567 0.28573
23.20772 0.28573
23.22976 0.28587
23.23399 0.28591
23.25603 0.28591
23.27805 0.28604
23.28227 0.28608
23.30429 0.28607
23.32631 0.28620
23.33052 0.28625
23.35253 0.28623
23.37453 0.28636
23.37872 0.28639
23.40071 0.28638
23.42270 0.28650
23.42688 0.28653
23.44886 0.28651
23.47085 0.28662
23.47500 0.28666
23.49698 0.28663
23.51895 0.28674
23.52309 0.28678
23.54506 0.28674
23.56703 0.28684
23.57115 0.28687
23.59311 0.28683
23.61507 0.28693
23.61918 0.28696
23.64113 0.28691
23.66309 0.28700
23.66717 0.28703
23.68912 0.28698
23.71107 0.28706
23.71516 0.28709
23.73710 0.28703
23.75905 0.28710
23.76311 0.28713
23.78505 0.28706
23.80699 0.28713
23.81103 0.28716
23.83297 0.28708
23.85491 0.28714
23.85895 0.28717
23.88089 0.28709
23.90283 0.28714
23.90685 0.28717
23.92879 0.28707
23.95073 0.28712
23.95473 0.28714
23.97667 0.28704
23.99861 0.28708
24.00260 0.28710
24.02455 0.28700
24.04650 0.28703
24.05047 0.28705
24.07242 0.28693
24.09438 0.28696
24.09833 0.28698
24.12029 0.28685
24.14225 0.28687
24.14619 0.28689
24.16815 0.28676
24.19012 0.28677
24.19406 0.28678
24.21602 0.28664
24.23800 0.28664
24.24192 0.28666
24.26389 0.28651
24.28588 0.28651
24.28978 0.28652
24.31177 0.28637
24.33377 0.28635
24.33767 0.28636
24.35967 0.28620
24.38168 0.28618
24.38556 0.28619
24.40757 0.28602
24.42960 0.28599
24.43347 0.28600
24.45550 0.28582
24.47754 0.28578
24.48139 0.28579
24.50343 0.28561
24.52549 0.28556
24.52933 0.28557
24.55139 0.28537
24.57347 0.28532
24.57731 0.28533
24.59938 0.28513
24.62148 0.28507
24.62530 0.28507
24.64740 0.28486
24.66952 0.28480
24.67333 0.28480
24.69544 0.28459
24.71758 0.28451
24.72138 0.28451
24.74352 0.28429
24.76568 0.28421
24.76947 0.28421
24.79164 0.28398
24.81382 0.28390
24.81760 0.28389
24.83979 0.28366
24.86200 0.28357
24.86577 0.28357
24.88798 0.28333
24.91021 0.28323
24.91398 0.28323
24.93622 0.28298
24.95848 0.28287
24.96224 0.28287
24.98450 0.28262
25.00680 0.28251
25.01054 0.28250
25.03283 0.28224
25.05516 0.28213
25.05889 0.28212
25.08122 0.28186
25.10357 0.28174
25.10729 0.28173
25.12964 0.28147
25.15203 0.28134
25.15575 0.28133
25.17814 0.28106
25.20055 0.28093
25.20427 0.28092
25.22669 0.28065
25.24914 0.28051
25.25284 0.28051
25.27529 0.28023
25.29777 0.28009
25.30148 0.28008
25.32396 0.27980
25.34648 0.27966
25.35017 0.27965
25.37269 0.27936
25.39524 0.27922
25.39893 0.27921
25.42149 0.27892
25.44407 0.27878
25.44776 0.27876
25.47034 0.27847
25.49297 0.27833
25.49665 0.27832
25.51928 0.27802
25.54194 0.27788
25.54561 0.27787
25.56827 0.27757
25.59097 0.27742
25.59464 0.27741
25.61734 0.27712
25.64007 0.27696
25.64374 0.27695
25.66648 0.27666
25.68925 0.27651
25.69291 0.27650
25.71568 0.27620
25.73849 0.27605
25.74215 0.27604
25.76496 0.27574
25.78781 0.27559
25.79146 0.27558
25.81431 0.27529
25.83720 0.27514
25.84084 0.27513
25.86373 0.27484
25.88665 0.27469
25.89031 0.27468
25.91323 0.27439
25.93619 0.27425
25.93984 0.27424
25.96280 0.27395
25.98579 0.27380
25.98943 0.27380
26.01243 0.27351
26.03547 0.27337
26.03911 0.27336
26.06214 0.27308
26.08522 0.27294
26.08885 0.27293
26.11192 0.27265
26.13502 0.27252
26.13866 0.27251
26.16177 0.27224
26.18491 0.27211
26.18854 0.27210
26.21168 0.27184
26.23486 0.27171
26.23850 0.27171
26.26168 0.27144
26.28489 0.27132
26.28851 0.27132
26.31172 0.27106
26.33496 0.27094
26.33859 0.27094
26.36183 0.27069
26.38511 0.27058
26.38873 0.27058
26.41200 0.27033
26.43531 0.27023
26.43893 0.27023
26.46224 0.26999
26.48557 0.26990
26.48919 0.26989
26.51253 0.26966
26.53589 0.26958
26.53950 0.26958
26.56287 0.26935
26.58626 0.26927
26.58988 0.26927
26.61327 0.26905
26.63669 0.26898
26.64029 0.26899
26.66371 0.26878
26.68715 0.26871
26.69076 0.26872
26.71420 0.26852
26.73767 0.26846
26.74127 0.26847
26.76473 0.26828
26.78822 0.26823
26.79182 0.26824
26.81531 0.26805
26.83881 0.26802
26.84241 0.26802
26.86591 0.26785
26.88943 0.26783
26.89302 0.26783
26.91654 0.26767
26.94008 0.26765
26.94367 0.26766
26.96721 0.26751
26.99076 0.26750
26.99434 0.26751
27.01789 0.26737
27.04146 0.26737
27.04504 0.26738
27.06860 0.26725
27.09218 0.26726
27.09575 0.26728
27.11933 0.26715
27.14291 0.26718
27.14647 0.26719
27.17005 0.26708
27.19364 0.26711
27.19722 0.26713
27.22080 0.26703
27.24439 0.26707
27.24795 0.26709
27.27154 0.26700
27.29514 0.26705
27.29869 0.26708
27.32228 0.26699
27.34587 0.26706
27.34942 0.26708
27.37301 0.26701
27.39660 0.26708
27.40014 0.26711
27.42373 0.26705
27.44732 0.26713
27.45085 0.26716
27.47443 0.26711
27.49801 0.26720
27.50155 0.26723
27.52512 0.26719
27.54870 0.26729
27.55222 0.26732
27.57579 0.26729
27.59935 0.26741
27.60286 0.26744
27.62642 0.26742
27.64996 0.26754
27.65348 0.26757
27.67702 0.26756
27.70056 0.26770
27.70405 0.26773
27.72758 0.26773
27.75110 0.26788
27.75458 0.26791
27.77810 0.26792
27.80160 0.26807
27.80509 0.26811
27.82858 0.26813
27.85206 0.26829
27.85554 0.26833
27.87901 0.26836
27.90247 0.26853
27.90593 0.26857
27.92939 0.26860
27.95283 0.26878
27.95627 0.26882
27.97971 0.26886
28.00312 0.26905
28.00656 0.26909
28.02996 0.26914
28.05335 0.26934
28.05679 0.26938
28.08017 0.26944
28.10353 0.26965
28.10694 0.26969
28.13029 0.26975
28.15363 0.26997
28.15703 0.27001
28.18036 0.27008
28.20366 0.27030
28.20705 0.27034
28.23035 0.27042
28.25362 0.27065
28.25701 0.27069
28.28027 0.27078
28.30352 0.27101
28.30688 0.27105
28.33012 0.27114
28.35333 0.27138
28.35669 0.27142
28.37989 0.27152
28.40307 0.27176
28.40641 0.27181
28.42958 0.27190
28.45272 0.27215
28.45604 0.27220
28.47918 0.27230
28.50228 0.27255
28.50560 0.27259
28.52870 0.27270
28.55177 0.27295
28.55508 0.27300
28.57815 0.27311
28.60119 0.27336
28.60447 0.27341
28.62750 0.27352
28.65051 0.27378
28.65377 0.27383
28.67677 0.27394
28.69974 0.27420
28.70299 0.27425
28.72596 0.27436
28.74889 0.27462
28.75213 0.27467
28.77506 0.27479
28.79795 0.27505
28.80117 0.27510
28.82407 0.27521
28.84693 0.27547
28.85013 0.27552
28.87299 0.27564
28.89582 0.27590
28.89901 0.27594
28.92183 0.27606
28.94462 0.27632
28.94780 0.27636
28.97059 0.27648
28.99335 0.27674
28.99651 0.27678
29.01926 0.27689
29.04199 0.27715
29.04512 0.27720
29.06784 0.27731
29.09053 0.27756
29.09366 0.27760
29.11635 0.27771
29.13901 0.27796
29.14212 0.27801
29.16477 0.27811
29.18740 0.27835
29.19049 0.27840
29.21312 0.27850
29.23571 0.27874
29.23879 0.27878
29.26139 0.27888
29.28395 0.27911
29.28701 0.27916
29.30957 0.27925
29.33211 0.27948
29.33516 0.27952
29.35769 0.27960
29.38020 0.27983
29.38322 0.27987
29.40573 0.27995
29.42821 0.28017
29.43122 0.28021
29.45370 0.28028
29.47616 0.28049
29.47915 0.28053
29.50160 0.28060
29.52403 0.28080
29.52702 0.28084
29.54945 0.28090
29.57185 0.28110
29.57481 0.28113
29.59722 0.28118
29.61961 0.28138
29.62255 0.28141
29.64493 0.28145
29.66730 0.28164
29.67023 0.28167
29.69259 0.28170
29.71494 0.28188
29.71786 0.28191
29.74021 0.28194
29.76254 0.28210
29.76543 0.28213
29.78776 0.28215
29.81007 0.28230
29.81296 0.28233
29.83527 0.28234
29.85758 0.28249
29.86044 0.28252
29.88274 0.28251
29.90503 0.28265
29.90788 0.28267
29.93016 0.28266
29.95244 0.28278
29.95526 0.28281
29.97754 0.28279
29.99981 0.28290
30.00263 0.28293
30.02490 0.28289
30.04716 0.28300
30.04996 0.28302
30.07222 0.28297
30.09448 0.28307
30.09727 0.28309
30.11952 0.28303
30.14178 0.28311
30.14454 0.28313
30.16679 0.28307
30.18905 0.28314
30.19180 0.28316
30.21405 0.28308
30.23630 0.28314
30.23904 0.28315
30.26129 0.28306
30.28355 0.28311
30.28627 0.28312
30.30852 0.28302
30.33078 0.28306
30.33348 0.28307
30.35574 0.28296
30.37800 0.28298
30.38070 0.28299
30.40296 0.28287
30.42524 0.28288
30.42791 0.28289
30.45018 0.28275
30.47246 0.28276
30.47513 0.28277
30.49741 0.28261
30.51971 0.28260
30.52235 0.28261
30.54464 0.28245
30.56695 0.28243
30.56958 0.28244
30.59189 0.28226
30.61421 0.28223
30.61684 0.28223
30.63916 0.28205
30.66149 0.28200
30.66410 0.28201
30.68644 0.28181
30.70880 0.28175
30.71140 0.28176
30.73376 0.28155
30.75614 0.28148
30.75872 0.28148
30.78109 0.28126
30.80349 0.28118
30.80607 0.28118
30.82847 0.28095
30.85089 0.28086
30.85345 0.28086
30.87588 0.28062
30.89833 0.28052
30.90088 0.28051
30.92333 0.28026
30.94581 0.28015
30.94835 0.28015
30.97083 0.27988
30.99334 0.27976
30.99586 0.27975
31.01837 0.27948
31.04091 0.27935
31.04343 0.27934
31.06597 0.27906
31.08854 0.27892
31.09105 0.27891
31.11363 0.27862
31.13624 0.27847
31.13874 0.27846
31.16135 0.27816
31.18400 0.27800
31.18648 0.27799
31.20912 0.27768
31.23181 0.27751
31.23428 0.27750
31.25697 0.27718
31.27970 0.27700
31.28217 0.27699
31.30489 0.27667
31.32766 0.27648
31.33012 0.27647
31.35289 0.27614
31.37570 0.27594
31.37815 0.27593
31.40097 0.27559
31.42382 0.27539
31.42626 0.27538
31.44911 0.27503
31.47202 0.27483
31.47445 0.27481
31.49736 0.27446
31.52031 0.27425
31.52273 0.27423
31.54568 0.27387
31.56868 0.27366
31.57109 0.27364
31.59409 0.27328
31.61714 0.27306
31.61954 0.27304
31.64259 0.27267
31.66569 0.27245
31.66810 0.27243
31.69120 0.27206
31.71435 0.27183
31.71674 0.27182
31.73990 0.27144
31.76310 0.27121
31.76549 0.27120
31.78869 0.27082
31.81195 0.27058
31.81433 0.27057
31.83758 0.27018
31.86090 0.26995
31.86328 0.26993
31.88659 0.26955
31.90996 0.26931
31.91232 0.26930
31.93569 0.26891
31.95911 0.26868
31.96148 0.26866
31.98490 0.26828
32.00838 0.26804
32.01074 0.26803
32.03422 0.26764
32.05775 0.26741
32.06010 0.26739
32.08364 0.26701
32.10723 0.26678
32.10957 0.26676
32.13317 0.26638
32.15681 0.26615
32.15916 0.26614
32.18280 0.26576
32.20650 0.26553
32.20884 0.26552
32.23254 0.26514
32.25630 0.26492
32.25863 0.26490
32.28239 0.26453
32.30620 0.26431
32.30853 0.26430
32.33235 0.26393
32.35621 0.26372
32.35855 0.26370
32.38241 0.26334
32.40633 0.26314
32.40865 0.26312
32.43258 0.26277
32.45655 0.26256
32.45887 0.26255
32.48284 0.26220
32.50687 0.26201
32.50919 0.26200
32.53321 0.26166
32.55729 0.26147
32.55960 0.26146
32.58368 0.26113
32.60781 0.26094
32.61011 0.26094
32.63424 0.26061
32.65841 0.26044
32.66072 0.26043
32.68489 0.26012
32.70911 0.25996
32.71142 0.25995
32.73564 0.25964
32.75991 0.25949
32.76221 0.25949
32.78647 0.25919
32.81078 0.25905
32.81307 0.25905
32.83738 0.25876
32.86173 0.25863
32.86402 0.25863
32.88837 0.25835
32.91276 0.25824
32.91503 0.25823
32.93942 0.25797
32.96385 0.25787
32.96614 0.25786
32.99056 0.25762
33.01502 0.25752
33.01730 0.25752
33.04175 0.25729
33.06624 0.25721
33.06851 0.25721
33.09300 0.25698
33.11752 0.25692
33.11980 0.25692
33.14432 0.25671
33.16886 0.25666
33.17113 0.25666
33.19567 0.25647
33.22024 0.25643
33.22250 0.25643
33.24706 0.25625
33.27165 0.25623
33.27391 0.25623
33.29850 0.25607
33.32310 0.25605
33.32535 0.25606
33.34996 0.25591
33.37458 0.25592
33.37682 0.25592
33.40144 0.25579
33.42607 0.25581
33.42831 0.25582
33.45294 0.25570
33.47758 0.25573
33.47982 0.25574
33.50446 0.25564
33.52910 0.25569
33.53133 0.25570
33.55597 0.25561
33.58061 0.25567
33.58283 0.25568
33.60748 0.25561
33.63212 0.25569
33.63434 0.25571
33.65898 0.25565
33.68362 0.25574
33.68583 0.25576
33.71046 0.25571
33.73509 0.25582
33.73730 0.25584
33.76192 0.25581
33.78654 0.25594
33.78873 0.25596
33.81335 0.25594
33.83795 0.25608
33.84015 0.25610
33.86475 0.25610
33.88934 0.25626
33.89151 0.25628
33.91609 0.25629
33.94066 0.25646
33.94283 0.25648
33.96739 0.25651
33.99194 0.25670
33.99411 0.25672
34.01865 0.25676
34.04316 0.25696
34.04532 0.25698
34.06983 0.25704
34.09432 0.25725
34.09646 0.25728
34.12094 0.25735
34.14540 0.25757
34.14755 0.25760
34.17200 0.25768
34.19642 0.25792
34.19854 0.25794
34.22296 0.25804
34.24735 0.25828
34.24947 0.25831
34.27385 0.25842
34.29819 0.25868
34.30030 0.25871
34.32465 0.25883
34.34895 0.25910
34.35104 0.25913
34.37534 0.25925
34.39961 0.25954
34.40170 0.25957
34.42596 0.25971
34.45018 0.26000
34.45225 0.26003
34.47646 0.26018
34.50064 0.26048
34.50270 0.26051
34.52687 0.26067
34.55100 0.26098
34.55304 0.26101
34.57716 0.26118
34.60124 0.26149
34.60328 0.26153
34.62735 0.26170
34.65138 0.26202
34.65341 0.26206
34.67743 0.26224
34.70141 0.26257
34.70342 0.26261
34.72739 0.26279
34.75131 0.26313
34.75333 0.26316
34.77725 0.26335
34.80112 0.26370
34.80310 0.26373
34.82697 0.26393
34.85079 0.26427
34.85276 0.26431
34.87658 0.26451
34.90035 0.26486
34.90230 0.26490
34.92606 0.26510
34.94977 0.26545
34.95172 0.26549
34.97543 0.26569
34.99908 0.26605
35.00102 0.26608
35.02468 0.26629
35.04828 0.26665
35.05020 0.26668
35.07380 0.26690
35.09735 0.26725
35.09926 0.26729
35.12281 0.26750
35.14631 0.26785
35.14819 0.26789
35.17169 0.26810
35.19513 0.26846
35.19701 0.26849
35.22045 0.26870
35.24384 0.26905
35.24571 0.26909
35.26910 0.26930
35.29244 0.26965
35.29429 0.26968
35.31763 0.26989
35.34093 0.27024
35.34275 0.27027
35.36604 0.27047
35.38929 0.27082
35.39109 0.27085
35.41434 0.27104
35.43753 0.27139
35.43933 0.27142
35.46252 0.27161
35.48567 0.27195
35.48746 0.27198
35.51060 0.27216
35.53371 0.27249
35.53548 0.27253
35.55858 0.27270
35.58164 0.27303
35.58339 0.27306
35.60644 0.27323
35.62946 0.27355
35.63119 0.27358
35.65421 0.27374
35.67718 0.27405
35.67891 0.27408
35.70188 0.27424
35.72481 0.27454
35.72651 0.27457
35.74945 0.27471
35.77234 0.27501
35.77404 0.27503
35.79693 0.27517
35.81979 0.27545
35.82147 0.27548
35.84433 0.27561
35.86715 0.27588
35.86880 0.27590
35.89163 0.27602
35.91442 0.27628
35.91607 0.27631
35.93886 0.27641
35.96163 0.27666
35.96325 0.27669
35.98601 0.27678
36.00875 0.27702
36.01036 0.27704
36.03310 0.27712
36.05581 0.27735
36.05740 0.27737
36.08011 0.27744
36.10280 0.27766
36.10438 0.27768
36.12706 0.27773
36.14973 0.27793
36.15129 0.27795
36.17395 0.27800
36.19660 0.27818
36.19814 0.27820
36.22079 0.27823
36.24342 0.27840
36.24494 0.27842
36.26757 0.27844
36.29018 0.27860
36.29170 0.27861
36.31431 0.27861
36.33692 0.27876
36.33841 0.27877
36.36101 0.27876
36.38360 0.27889
36.38509 0.27890
36.40768 0.27887
36.43027 0.27899
36.43173 0.27900
36.45431 0.27895
36.47689 0.27905
36.47834 0.27906
36.50092 0.27901
36.52349 0.27909
36.52493 0.27910
36.54750 0.27903
36.57008 0.27909
36.57150 0.27910
36.59407 0.27901
36.61665 0.27907
36.61806 0.27907
36.64063 0.27897
36.66322 0.27901
36.66461 0.27901
36.68719 0.27889
36.70978 0.27891
36.71116 0.27892
36.73375 0.27878
36.75635 0.27878
36.75771 0.27879
36.78031 0.27863
36.80292 0.27862
36.80426 0.27863
36.82687 0.27846
36.84949 0.27843
36.85083 0.27843
36.87346 0.27825
36.89610 0.27820
36.89741 0.27821
36.92005 0.27800
36.94272 0.27795
36.94402 0.27795
36.96668 0.27773
36.98937 0.27766
36.99067 0.27766
37.01335 0.27742
37.03606 0.27734
37.03733 0.27733
37.06004 0.27709
37.08278 0.27698
37.08404 0.27698
37.10678 0.27672
37.12954 0.27660
37.13079 0.27660
37.15356 0.27632
37.17636 0.27618
37.17759 0.27618
37.20039 0.27589
37.22323 0.27574
37.22445 0.27574
37.24728 0.27543
37.27016 0.27527
37.27137 0.27526
37.29424 0.27494
37.31715 0.27476
37.31834 0.27476
37.34125 0.27443
37.36421 0.27424
37.36538 0.27423
37.38834 0.27388
37.41134 0.27368
37.41251 0.27367
37.43551 0.27332
37.45855 0.27310
37.45971 0.27309
37.48275 0.27272
37.50585 0.27250
37.50699 0.27249
37.53009 0.27211
37.55324 0.27187
37.55437 0.27186
37.57752 0.27147
37.60072 0.27122
37.60184 0.27121
37.62504 0.27080
37.64829 0.27054
37.64940 0.27053
37.67265 0.27012
37.69597 0.26985
37.69707 0.26984
37.72038 0.26942
37.74376 0.26914
37.74483 0.26913
37.76821 0.26870
37.79164 0.26841
37.79273 0.26840
37.81616 0.26796
37.83966 0.26767
37.84071 0.26766
37.86421 0.26721
37.88778 0.26691
37.88883 0.26690
37.91240 0.26645
37.93603 0.26614
37.93707 0.26613
37.96070 0.26567
37.98440 0.26536
37.98544 0.26535
38.00913 0.26488
38.03290 0.26457
38.03394 0.26456
38.05770 0.26408
38.08154 0.26376
38.08255 0.26375
38.10639 0.26328
38.13031 0.26296
38.13132 0.26295
38.15523 0.26247
38.17922 0.26215
38.18020 0.26214
38.20419 0.26166
38.22825 0.26134
38.22925 0.26132
38.25331 0.26085
38.27745 0.26052
38.27841 0.26051
38.30254 0.26003
38.32676 0.25971
38.32773 0.25970
38.35194 0.25922
38.37623 0.25890
38.37719 0.25889
38.40148 0.25841
38.42584 0.25809
38.42680 0.25808
38.45116 0.25761
38.47561 0.25729
38.47655 0.25728
38.50099 0.25681
38.52550 0.25650
38.52645 0.25649
38.55097 0.25602
38.57556 0.25572
38.57649 0.25571
38.60108 0.25525
38.62575 0.25495
38.62668 0.25494
38.65135 0.25448
38.67609 0.25419
38.67701 0.25418
38.70176 0.25374
38.72657 0.25345
38.72748 0.25344
38.75230 0.25300
38.77719 0.25273
38.77809 0.25272
38.80298 0.25229
38.82795 0.25202
38.82885 0.25201
38.85381 0.25160
38.87884 0.25134
38.87972 0.25133
38.90476 0.25093
38.92986 0.25068
38.93075 0.25067
38.95586 0.25028
38.98102 0.25004
38.98189 0.25004
39.00706 0.24965
39.03229 0.24943
39.03316 0.24943
39.05839 0.24906
39.08368 0.24885
39.08455 0.24884
39.10985 0.24849
39.13520 0.24830
39.13606 0.24829
39.16141 0.24795
39.18682 0.24778
39.18766 0.24777
39.21307 0.24745
39.23853 0.24729
39.23938 0.24728
39.26485 0.24698
39.29036 0.24683
39.29120 0.24683
39.31671 0.24654
39.34227 0.24641
39.34310 0.24640
39.36866 0.24613
39.39425 0.24602
39.39507 0.24602
39.42067 0.24576
39.44631 0.24567
39.44714 0.24567
39.47278 0.24543
39.49845 0.24536
39.49927 0.24536
39.52494 0.24514
39.55064 0.24509
39.55145 0.24509
39.57715 0.24489
39.60288 0.24485
39.60367 0.24485
39.62940 0.24468
39.65515 0.24466
39.65595 0.24466
39.68170 0.24450
39.70747 0.24451
39.70827 0.24451
39.73403 0.24437
39.75981 0.24439
39.76059 0.24440
39.78637 0.24428
39.81216 0.24432
39.81294 0.24433
39.83873 0.24423
39.86452 0.24429
39.86530 0.24430
39.89109 0.24422
39.91688 0.24431
39.91763 0.24431
39.94342 0.24425
39.96921 0.24436
39.96997 0.24437
39.99575 0.24433
40.02153 0.24446
40.02227 0.24446
40.04804 0.24445
40.07380 0.24459
40.07456 0.24460
40.10032 0.24460
40.12605 0.24477
40.12679 0.24478
40.15253 0.24480
40.17824 0.24498
40.17897 0.24499
40.20468 0.24504
40.23037 0.24524
40.23109 0.24525
40.25678 0.24531
40.28243 0.24554
40.28315 0.24554
40.30880 0.24563
40.33441 0.24587
40.33512 0.24588
40.36074 0.24598
40.38632 0.24624
40.38702 0.24625
40.41259 0.24636
40.43812 0.24664
40.43881 0.24665
40.46434 0.24679
40.48982 0.24708
40.49052 0.24709
40.51600 0.24724
40.54144 0.24755
40.54211 0.24756
40.56754 0.24773
40.59292 0.24806
40.59358 0.24807
40.61896 0.24825
40.64428 0.24859
40.64495 0.24861
40.67027 0.24880
40.69553 0.24916
40.69618 0.24917
40.72144 0.24938
40.74665 0.24975
40.74728 0.24976
40.77247 0.24998
40.79761 0.25036
40.79824 0.25038
40.82338 0.25061
40.84845 0.25101
40.84907 0.25102
40.87414 0.25127
40.89914 0.25167
40.89976 0.25168
40.92476 0.25194
40.94969 0.25235
40.95029 0.25236
40.97522 0.25263
41.00008 0.25306
41.00067 0.25307
41.02553 0.25334
41.05032 0.25377
41.05091 0.25378
41.07570 0.25407
41.10041 0.25451
41.10099 0.25452
41.12570 0.25481
41.15034 0.25525
41.15090 0.25526
41.17554 0.25556
41.20011 0.25601
41.20066 0.25602
41.22523 0.25632
41.24972 0.25677
41.25026 0.25678
41.27475 0.25709
41.29917 0.25754
41.29971 0.25755
41.32413 0.25786
41.34848 0.25832
41.34900 0.25833
41.37334 0.25864
41.39761 0.25910
41.39812 0.25911
41.42239 0.25942
41.44659 0.25988
41.44709 0.25989
41.47128 0.26020
41.49541 0.26066
41.49589 0.26067
41.52002 0.26097
41.54408 0.26143
41.54455 0.26144
41.56860 0.26174
41.59259 0.26220
41.59305 0.26221
41.61704 0.26251
41.64095 0.26296
41.64140 0.26297
41.66532 0.26327
41.68917 0.26372
41.68962 0.26373
41.71347 0.26402
41.73725 0.26446
41.73767 0.26447
41.76145 0.26475
41.78517 0.26519
41.78558 0.26520
41.80931 0.26548
41.83296 0.26590
41.83336 0.26591
41.85702 0.26618
41.88061 0.26660
41.88100 0.26661
41.90460 0.26687
41.92814 0.26728
41.92851 0.26729
41.95205 0.26755
41.97553 0.26795
41.97589 0.26795
41.99938 0.26820
42.02281 0.26858
42.02316 0.26859
42.04659 0.26882
42.06996 0.26920
42.07029 0.26921
42.09367 0.26943
42.11700 0.26980
42.11732 0.26980
42.14065 0.27001
42.16393 0.27036
42.16423 0.27037
42.18751 0.27056
42.21075 0.27090
42.21104 0.27091
42.23428 0.27109
42.25747 0.27141
42.25775 0.27142
42.28094 0.27158
42.30410 0.27190
42.30437 0.27190
42.32752 0.27205
42.35064 0.27235
42.35089 0.27235
42.37401 0.27249
42.39710 0.27277
42.39733 0.27277
42.42042 0.27289
42.44347 0.27315
42.44369 0.27316
42.46675 0.27326
42.48978 0.27350
42.48999 0.27351
42.51302 0.27359
42.53602 0.27382
42.53620 0.27382
42.55921 0.27389
42.58219 0.27410
42.58237 0.27410
42.60535 0.27415
42.62831 0.27434
42.62847 0.27435
42.65143 0.27438
42.67438 0.27455
42.67452 0.27455
42.69746 0.27456
42.72040 0.27472
42.72054 0.27472
42.74347 0.27471
42.76639 0.27485
42.76651 0.27485
42.78943 0.27482
42.81234 0.27494
42.81244 0.27494
42.83535 0.27489
42.85827 0.27499
42.85835 0.27499
42.88126 0.27492
42.90417 0.27500
42.90424 0.27500
42.92715 0.27492
42.95007 0.27497
42.95012 0.27497
42.97303 0.27487
42.99595 0.27491
42.99599 0.27491
43.01891 0.27478
43.04183 0.27480
43.04185 0.27480
43.06478 0.27465
43.08772 0.27465
43.11065 0.27448
43.13360 0.27446
43.15656 0.27427
43.17950 0.27423
43.20247 0.27402
43.22542 0.27396
43.24842 0.27373
43.27137 0.27365
43.29439 0.27340
43.31735 0.27330
43.34040 0.27303
43.36339 0.27291
43.38646 0.27262
43.40946 0.27248
43.43257 0.27218
43.45559 0.27202
43.47874 0.27170
43.50179 0.27152
43.52497 0.27118
43.54805 0.27098
43.57127 0.27062
43.59438 0.27041
43.61765 0.27003
43.64079 0.26980
43.66412 0.26941
43.68729 0.26916
43.71066 0.26875
43.73388 0.26849
43.75731 0.26806
43.78057 0.26778
43.80406 0.26734
43.82736 0.26705
43.85091 0.26659
43.87426 0.26629
43.89788 0.26582
43.92128 0.26550
43.94496 0.26502
43.96841 0.26469
43.99216 0.26419
44.01567 0.26384
44.03950 0.26334
44.06307 0.26298
44.08697 0.26246
44.11061 0.26210
44.13459 0.26157
44.15829 0.26119
44.18235 0.26065
44.20611 0.26027
44.23025 0.25973
44.25409 0.25934
44.27831 0.25878
44.30222 0.25839
44.32653 0.25783
44.35051 0.25742
44.37492 0.25686
44.39898 0.25645
44.42347 0.25588
44.44762 0.25547
44.47220 0.25490
44.49641 0.25448
44.52109 0.25391
44.54539 0.25350
44.57017 0.25292
44.59455 0.25250
44.61943 0.25193
44.64389 0.25151
44.66887 0.25094
44.69341 0.25053
44.71848 0.24995
44.74312 0.24954
44.76829 0.24898
44.79301 0.24857
44.81828 0.24801
44.84310 0.24761
44.86847 0.24705
44.89336 0.24666
44.91883 0.24610
44.94382 0.24572
44.96939 0.24518
44.99446 0.24480
45.02013 0.24427
45.04528 0.24390
45.07105 0.24338
45.09628 0.24302
45.12215 0.24251
45.14746 0.24216
45.17342 0.24167
45.19882 0.24134
45.22488 0.24085
45.25035 0.24053
45.27649 0.24006
45.30204 0.23976
45.32827 0.23931
45.35390 0.23903
45.38022 0.23859
45.40591 0.23832
45.43231 0.23790
45.45809 0.23765
45.48457 0.23725
45.51039 0.23702
45.53695 0.23664
45.56283 0.23643
45.58946 0.23607
45.61540 0.23589
45.64209 0.23555
45.66809 0.23538
45.69484 0.23506
45.72089 0.23492
45.74769 0.23463
45.77378 0.23450
45.80064 0.23423
45.82675 0.23414
45.85366 0.23389
45.87981 0.23382
45.90675 0.23360
45.93293 0.23355
45.95990 0.23335
45.98610 0.23332
46.01310 0.23315
46.03931 0.23315
46.06633 0.23301
46.09255 0.23303
46.11959 0.23292
46.14581 0.23297
46.17286 0.23287
46.19908 0.23295
46.22613 0.23288
46.25233 0.23298
46.27938 0.23294
46.30556 0.23307
46.33259 0.23306
46.35876 0.23321
46.38578 0.23322
46.41191 0.23340
46.43890 0.23343
46.46500 0.23363
46.49196 0.23369
46.51802 0.23392
46.54495 0.23401
46.57096 0.23425
46.59784 0.23437
46.62380 0.23464
46.65064 0.23477
46.67654 0.23506
46.70333 0.23522
46.72917 0.23554
46.75590 0.23572
46.78168 0.23605
46.80834 0.23626
46.83405 0.23661
46.86064 0.23684
46.88627 0.23721
46.91280 0.23745
46.93834 0.23785
46.96479 0.23811
46.99025 0.23852
47.01663 0.23880
47.04200 0.23923
47.06829 0.23953
47.09359 0.23997
47.11979 0.24028
47.14498 0.24074
47.17110 0.24107
47.19620 0.24154
47.22223 0.24188
47.24723 0.24237
47.27317 0.24272
47.29808 0.24321
47.32392 0.24358
47.34872 0.24408
47.37447 0.24446
47.39917 0.24497
47.42482 0.24536
47.44942 0.24588
47.47497 0.24627
47.49948 0.24680
47.52494 0.24719
47.54933 0.24773
47.57469 0.24813
47.59899 0.24867
47.62425 0.24908
47.64844 0.24962
47.67361 0.25003
47.69770 0.25057
47.72277 0.25098
47.74675 0.25152
47.77173 0.25193
47.79562 0.25248
47.82050 0.25288
47.84429 0.25342
47.86908 0.25383
47.89276 0.25437
47.91746 0.25477
47.94105 0.25531
47.96566 0.25571
47.98916 0.25623
48.01368 0.25663
48.03709 0.25715
48.06152 0.25754
48.08484 0.25805
48.10919 0.25843
48.13241 0.25894
48.15668 0.25931
48.17982 0.25980
48.20402 0.26016
48.22708 0.26065
48.25119 0.26100
48.27417 0.26147
48.29822 0.26181
48.32111 0.26227
48.34509 0.26260
48.36790 0.26305
48.39181 0.26336
48.41455 0.26379
48.43839 0.26409
48.46107 0.26451
48.48485 0.26479
48.50745 0.26519
48.53118 0.26546
48.55371 0.26584
48.57738 0.26609
48.59986 0.26646
48.62348 0.26669
48.64589 0.26704
48.66946 0.26725
48.69183 0.26759
48.71535 0.26778
48.73766 0.26809
48.76114 0.26826
48.78339 0.26856
48.80684 0.26871
48.82905 0.26898
48.85246 0.26911
48.87463 0.26937
48.89801 0.26947
48.92013 0.26971
48.94349 0.26979
48.96558 0.27001
48.98891 0.27007
49.01096 0.27026
49.03427 0.27030
49.05629 0.27047
49.07958 0.27048
49.10159 0.27063
49.12487 0.27062
49.14683 0.27075
49.17011 0.27071
49.19206 0.27081
49.21532 0.27076
49.23726 0.27084
49.26052 0.27076
49.28244 0.27081
49.30571 0.27071
49.32762 0.27074
49.35089 0.27061
49.37279 0.27062
49.39607 0.27047
49.41797 0.27046
49.44126 0.27028
49.46316 0.27024
49.48647 0.27004
49.50839 0.26998
49.53172 0.26975
49.55362 0.26967
49.57698 0.26942
49.59890 0.26932
49.62229 0.26904
49.64423 0.26891
49.66764 0.26861
49.68959 0.26847
49.71304 0.26814
49.73501 0.26798
49.75850 0.26763
49.78051 0.26744
49.80404 0.26707
49.82606 0.26686
49.84964 0.26647
49.87170 0.26624
49.89533 0.26582
49.91743 0.26557
49.94112 0.26514
49.96324 0.26487
49.98698 0.26441
50.00916 0.26413
50.03297 0.26365
50.05519 0.26334
50.07907 0.26285
50.10133 0.26253
50.12528 0.26201
50.14760 0.26167
50.17161 0.26114
50.19399 0.26078
50.21808 0.26023
50.24052 0.25986
50.26469 0.25930
50.28719 0.25891
50.31145 0.25833
50.33401 0.25793
50.35836 0.25734
50.38100 0.25692
50.40544 0.25631
50.42814 0.25589
50.45267 0.25527
50.47546 0.25483
50.50008 0.25420
50.52294 0.25376
50.54767 0.25311
50.57062 0.25266
50.59546 0.25201
50.61848 0.25155
50.64342 0.25089
50.66653 0.25042
50.69159 0.24975
50.71479 0.24928
50.73995 0.24861
50.76325 0.24813
50.78853 0.24745
50.81192 0.24697
50.83731 0.24629
50.86079 0.24581
50.88631 0.24513
50.90990 0.24465
50.93553 0.24397
50.95922 0.24348
50.98498 0.24280
51.00876 0.24232
51.03465 0.24164
51.05853 0.24117
51.08454 0.24049
51.10852 0.24002
51.13466 0.23935
51.15876 0.23889
51.18503 0.23822
51.20923 0.23776
51.23562 0.23711
51.25992 0.23666
51.28644 0.23602
51.31084 0.23557
51.33748 0.23494
51.36199 0.23451
51.38876 0.23389
51.41338 0.23347
51.44027 0.23287
51.46498 0.23247
51.49200 0.23188
51.51680 0.23149
51.54394 0.23091
51.56885 0.23054
51.59610 0.22999
51.62111 0.22963
51.64848 0.22910
51.67357 0.22876
51.70105 0.22825
51.72623 0.22793
51.75381 0.22744
51.77908 0.22714
51.80677 0.22667
51.83212 0.22640
51.85991 0.22595
51.88531 0.22570
51.91319 0.22528
51.93869 0.22506
51.96665 0.22466
51.99221 0.22446
52.02025 0.22410
52.04586 0.22392
52.07397 0.22358
52.09963 0.22343
52.12782 0.22313
52.15353 0.22300
52.18177 0.22273
52.20753 0.22263
52.23582 0.22239
52.26159 0.22232
52.28993 0.22211
52.31574 0.22207
52.34411 0.22188
52.36993 0.22187
52.39832 0.22172
52.42416 0.22174
52.45257 0.22162
52.47840 0.22167
52.50683 0.22158
52.53265 0.22166
52.56107 0.22161
52.58689 0.22171
52.61531 0.22169
52.64110 0.22183
52.66950 0.22184
52.69526 0.22201
52.72363 0.22205
52.74936 0.22224
52.77770 0.22231
52.80338 0.22254
52.83168 0.22264
52.85731 0.22289
52.88557 0.22302
52.91113 0.22330
52.93933 0.22346
52.96484 0.22377
52.99297 0.22396
53.01840 0.22429
53.04646 0.22451
53.07182 0.22487
53.09980 0.22512
53.12507 0.22549
53.15296 0.22577
53.17816 0.22617
53.20596 0.22647
53.23106 0.22689
53.25877 0.22722
53.28376 0.22766
53.31137 0.22801
53.33627 0.22847
53.36378 0.22884
53.38856 0.22932
53.41596 0.22971
53.44063 0.23021
53.46792 0.23061
53.49249 0.23113
53.51967 0.23155
53.54411 0.23208
53.57117 0.23253
53.59551 0.23307
53.62244 0.23353
53.64666 0.23408
53.67347 0.23455
53.69757 0.23512
53.72426 0.23560
53.74824 0.23618
53.77481 0.23667
53.79867 0.23725
53.82512 0.23775
53.84885 0.23834
53.87517 0.23885
53.89879 0.23944
53.92499 0.23995
53.94849 0.24056
53.97457 0.24107
53.99794 0.24168
54.02390 0.24220
54.04715 0.24280
54.07298 0.24332
54.09612 0.24392
54.12184 0.24444
54.14487 0.24505
54.17047 0.24556
54.19338 0.24617
54.21886 0.24668
54.24166 0.24728
54.26703 0.24779
54.28972 0.24838
54.31498 0.24888
54.33756 0.24947
54.36271 0.24996
54.38520 0.25054
54.41024 0.25103
54.43262 0.25160
54.45756 0.25208
54.47984 0.25263
54.50469 0.25310
54.52686 0.25365
54.55162 0.25410
54.57370 0.25464
54.59836 0.25508
54.62036 0.25560
54.64493 0.25603
54.66683 0.25654
54.69132 0.25695
54.71314 0.25744
54.73755 0.25783
54.75929 0.25831
54.78362 0.25868
54.80527 0.25915
54.82953 0.25950
54.85112 0.25994
54.87530 0.26028
54.89682 0.26071
54.92094 0.26102
54.94239 0.26143
54.96645 0.26172
54.98783 0.26211
55.01184 0.26237
55.03316 0.26274
55.05711 0.26299
55.07837 0.26333
55.10227 0.26355
55.12347 0.26388
55.14733 0.26407
55.16848 0.26438
55.19229 0.26455
55.21340 0.26482
55.23718 0.26497
55.25826 0.26523
55.28200 0.26535
55.30302 0.26558
55.32674 0.26567
55.34773 0.26588
55.37142 0.26594
55.39238 0.26613
55.41605 0.26616
55.43698 0.26632
55.46064 0.26633
55.48154 0.26647
55.50518 0.26645
55.52607 0.26656
55.54970 0.26651
55.57057 0.26659
55.59420 0.26652
55.61505 0.26658
55.63869 0.26647
55.65953 0.26651
55.68317 0.26637
55.70400 0.26638
55.72765 0.26622
55.74848 0.26620
55.77215 0.26601
55.79297 0.26596
55.81665 0.26575
55.83749 0.26568
55.86120 0.26543
55.88204 0.26534
55.90577 0.26506
55.92663 0.26494
55.95040 0.26464
55.97127 0.26449
55.99507 0.26416
56.01596 0.26399
56.03981 0.26363
56.06071 0.26344
56.08460 0.26306
56.10554 0.26284
56.12948 0.26243
56.15044 0.26219
56.17443 0.26175
56.19545 0.26149
56.21950 0.26103
56.24054 0.26074
56.26465 0.26025
56.28573 0.25995
56.30991 0.25943
56.33105 0.25911
56.35530 0.25857
56.37649 0.25822
56.40082 0.25766
56.42205 0.25730
56.44646 0.25671
56.46776 0.25633
56.49225 0.25573
56.51360 0.25533
56.53818 0.25470
56.55961 0.25428
56.58428 0.25364
56.60578 0.25320
56.63055 0.25254
56.65213 0.25209
56.67701 0.25141
56.69864 0.25095
56.72363 0.25025
56.74535 0.24977
56.77045 0.24906
56.79227 0.24857
56.81748 0.24784
56.83937 0.24734
56.86470 0.24660
56.88669 0.24609
56.91215 0.24534
56.93423 0.24483
56.95981 0.24407
56.98200 0.24354
57.00772 0.24277
57.03000 0.24224
57.05585 0.24146
57.07823 0.24092
57.10422 0.24014
57.12671 0.23960
57.15284 0.23882
57.17545 0.23827
57.20172 0.23748
57.22444 0.23694
57.25087 0.23615
57.27369 0.23561
57.30027 0.23482
57.32322 0.23427
57.34994 0.23349
57.37301 0.23295
57.39989 0.23217
57.42308 0.23163
57.45011 0.23085
57.47342 0.23032
57.50061 0.22956
57.52404 0.22904
57.55139 0.22828
57.57495 0.22776
57.60246 0.22702
57.62612 0.22651
57.65379 0.22578
57.67758 0.22529
57.70541 0.22457
57.72933 0.22409
57.75731 0.22339
57.78134 0.22293
57.80947 0.22224
57.83363 0.22179
57.86192 0.22113
57.88618 0.22070
57.91462 0.22006
57.93901 0.21965
57.96759 0.21903
57.99208 0.21864
58.02080 0.21804
58.04539 0.21768
58.07425 0.21711
58.09896 0.21677
58.12795 0.21622
58.15273 0.21591
58.18185 0.21539
58.20674 0.21510
58.23597 0.21462
58.26095 0.21435
58.29030 0.21390
58.31535 0.21367
58.34480 0.21325
58.36992 0.21304
58.39946 0.21266
58.42464 0.21248
58.45427 0.21213
58.47952 0.21198
58.50922 0.21167
58.53451 0.21155
58.56428 0.21128
58.58960 0.21119
58.61943 0.21096
58.64480 0.21090
58.67467 0.21070
58.70004 0.21068
58.72995 0.21052
58.75534 0.21053
58.78527 0.21041
58.81067 0.21046
58.84061 0.21037
58.86599 0.21045
58.89593 0.21041
58.92129 0.21052
58.95122 0.21052
58.97657 0.21066
59.00647 0.21069
59.03178 0.21087
59.06165 0.21094
59.08692 0.21115
59.11674 0.21126
59.14195 0.21150
59.17172 0.21165
59.19687 0.21192
59.22657 0.21210
59.25164 0.21240
59.28127 0.21262
59.30628 0.21296
59.33582 0.21321
59.36073 0.21357
59.39018 0.21386
59.41499 0.21425
59.44433 0.21457
59.46905 0.21498
59.49829 0.21533
59.52291 0.21577
59.55203 0.21615
59.57652 0.21662
59.60551 0.21703
59.62991 0.21751
59.65877 0.21795
59.68304 0.21846
59.71177 0.21892
59.73589 0.21945
59.76449 0.21993
59.78850 0.22048
59.81695 0.22099
59.84082 0.22156
59.86913 0.22208
59.89287 0.22267
59.92102 0.22321
59.94463 0.22381
59.97264 0.22437
59.99610 0.22498
60.02395 0.22556
60.04728 0.22618
60.07498 0.22677
60.09816 0.22740
60.12570 0.22800
60.14877 0.22864
60.17616 0.22926
60.19906 0.22990
60.22629 0.23052
60.24907 0.23117
60.27615 0.23180
60.29879 0.23245
60.32572 0.23308
60.34823 0.23374
60.37501 0.23437
60.39739 0.23503
60.42402 0.23566
60.44626 0.23632
60.47275 0.23695
60.49486 0.23761
60.52121 0.23824
60.54319 0.23889
60.56939 0.23952
60.59125 0.24017
60.61732 0.24079
60.63906 0.24143
60.66500 0.24204
60.68661 0.24267
60.71242 0.24327
60.73392 0.24390
60.75961 0.24449
60.78100 0.24511
60.80657 0.24569
60.82785 0.24629
60.85330 0.24686
60.87447 0.24745
60.89980 0.24800
60.92088 0.24858
60.94610 0.24911
60.96707 0.24967
60.99219 0.25019
61.01307 0.25074
61.03809 0.25123
61.05887 0.25177
61.08380 0.25224
61.10450 0.25276
61.12934 0.25321
61.14994 0.25371
61.17470 0.25414
61.19523 0.25462
61.21990 0.25503
61.24035 0.25549
61.26495 0.25587
61.28533 0.25631
61.30986 0.25666
61.33017 0.25708
61.35463 0.25741
61.37487 0.25780
61.39927 0.25811
61.41945 0.25848
61.44379 0.25875
61.46392 0.25910
61.48820 0.25935
61.50828 0.25967
61.53252 0.25989
61.55254 0.26019
61.57674 0.26038
61.59671 0.26065
61.62087 0.26080
61.64081 0.26105
61.66493 0.26118
61.68482 0.26140
61.70892 0.26150
61.72879 0.26169
61.75286 0.26175
61.77269 0.26192
61.79674 0.26195
61.81655 0.26209
61.84059 0.26209
61.86037 0.26221
61.88440 0.26217
61.90417 0.26226
61.92819 0.26219
61.94794 0.26225
61.97197 0.26215
61.99171 0.26218
62.01574 0.26205
62.03547 0.26205
62.05951 0.26189
62.07925 0.26187
62.10331 0.26167
62.12304 0.26162
62.14711 0.26138
62.16684 0.26131
62.19094 0.26104
62.21068 0.26094
62.23482 0.26064
62.25457 0.26051
62.27874 0.26018
62.29851 0.26002
62.32272 0.25966
62.34251 0.25948
62.36676 0.25908
62.38658 0.25887
62.41088 0.25844
62.43073 0.25821
62.45509 0.25775
62.47497 0.25750
62.49939 0.25701
62.51929 0.25672
62.54377 0.25621
62.56374 0.25590
62.58829 0.25535
62.60829 0.25502
62.63292 0.25445
62.65297 0.25410
62.67768 0.25349
62.69778 0.25312
62.72258 0.25249
62.74274 0.25210
62.76763 0.25144
62.78786 0.25102
62.81284 0.25034
62.83313 0.24991
62.85821 0.24921
62.87857 0.24875
62.90377 0.24802
62.92421 0.24755
62.94952 0.24680
62.97002 0.24632
62.99545 0.24555
63.01605 0.24504
63.04160 0.24425
63.06229 0.24374
63.08797 0.24293
63.10873 0.24240
63.13454 0.24158
63.15542 0.24103
63.18137 0.24019
63.20235 0.23964
63.22844 0.23878
63.24951 0.23822
63.27576 0.23735
63.29694 0.23678
63.32334 0.23591
63.34462 0.23532
63.37118 0.23444
63.39259 0.23385
63.41931 0.23296
63.44084 0.23237
63.46772 0.23147
63.48937 0.23088
63.51643 0.22998
63.53820 0.22938
63.56544 0.22848
63.58735 0.22788
63.61476 0.22698
63.63678 0.22638
63.66438 0.22548
63.68656 0.22489
63.71434 0.22400
63.73664 0.22341
63.76461 0.22252
63.78706 0.22193
63.81522 0.22105
63.83779 0.22048
63.86614 0.21961
63.88886 0.21904
63.91741 0.21818
63.94026 0.21763
63.96901 0.21678
63.99200 0.21624
64.02094 0.21541
64.04407 0.21488
64.07321 0.21407
64.09647 0.21356
64.12580 0.21277
64.14921 0.21227
64.17872 0.21151
64.20227 0.21103
64.23196 0.21029
64.25565 0.20984
64.28553 0.20912
64.30934 0.20869
64.33940 0.20800
64.36332 0.20759
64.39356 0.20693
64.41761 0.20655
64.44801 0.20593
64.47218 0.20557
64.50274 0.20498
64.52702 0.20465
64.55772 0.20410
64.58209 0.20379
64.61294 0.20328
64.63741 0.20301
64.66839 0.20253
64.69296 0.20229
64.72407 0.20185
64.74870 0.20165
64.77992 0.20125
64.80461 0.20108
64.83592 0.20073
64.86069 0.20059
64.89208 0.20028
64.91690 0.20018
64.94836 0.19991
64.97320 0.19984
65.00473 0.19962
65.02961 0.19959
65.06118 0.19942
65.08606 0.19942
65.11766 0.19930
65.14255 0.19933
65.17416 0.19925
65.19905 0.19933
65.23066 0.19930
65.25552 0.19941
65.28711 0.19942
65.31195 0.19957
65.34351 0.19963
65.36832 0.19981
65.39983 0.19992
65.42457 0.20014
65.45603 0.20028
65.48071 0.20054
65.51210 0.20073
65.53670 0.20102
65.56800 0.20126
65.59251 0.20158
65.62371 0.20186
65.64814 0.20221
65.67924 0.20253
65.70356 0.20292
65.73453 0.20327
65.75874 0.20369
65.78958 0.20408
65.81367 0.20453
65.84437 0.20496
65.86834 0.20543
65.89889 0.20590
65.92273 0.20640
65.95312 0.20690
65.97682 0.20743
66.00704 0.20796
66.03060 0.20850
66.06066 0.20906
66.08407 0.20963
66.11395 0.21022
66.13723 0.21081
66.16693 0.21142
66.19003 0.21203
66.21955 0.21266
66.24252 0.21329
66.27185 0.21395
66.29465 0.21459
66.32379 0.21526
66.34645 0.21592
66.37541 0.21661
66.39790 0.21728
66.42666 0.21798
66.44899 0.21866
66.47756 0.21938
66.49974 0.22007
66.52813 0.22079
66.55015 0.22149
66.57835 0.22222
66.60023 0.22292
66.62825 0.22367
66.64995 0.22437
66.67779 0.22512
66.69935 0.22582
66.72701 0.22657
66.74843 0.22727
66.77590 0.22802
66.79717 0.22873
66.82448 0.22947
66.84560 0.23018
66.87274 0.23092
66.89373 0.23161
66.92071 0.23235
66.94155 0.23304
66.96836 0.23377
66.98908 0.23446
67.01574 0.23518
67.03633 0.23585
67.06284 0.23656
67.08331 0.23723
67.10966 0.23793
67.13000 0.23858
67.15622 0.23926
67.17644 0.23990
67.20252 0.24057
67.22264 0.24120
67.24859 0.24185
67.26858 0.24246
67.29440 0.24309
67.31432 0.24369
67.34002 0.24429
67.35981 0.24488
67.38540 0.24546
67.40509 0.24602
67.43057 0.24659
67.45018 0.24713
67.47555 0.24767
67.49508 0.24819
67.52035 0.24870
67.53978 0.24921
67.56496 0.24969
67.58432 0.25018
67.60941 0.25063
67.62870 0.25109
67.65371 0.25152
67.67291 0.25196
67.69784 0.25236
67.71699 0.25277
67.74185 0.25313
67.76092 0.25352
67.78572 0.25386
67.80473 0.25422
67.82947 0.25452
67.84844 0.25486
67.87312 0.25513
67.89202 0.25544
67.91666 0.25567
67.93552 0.25596
67.96011 0.25616
67.97893 0.25642
68.00349 0.25658
68.02226 0.25681
68.04678 0.25694
68.06552 0.25714
68.09002 0.25723
68.10873 0.25741
68.13320 0.25747
68.15187 0.25761
68.17633 0.25763
68.19499 0.25775
68.21944 0.25773
68.23807 0.25782
68.26251 0.25776
68.28113 0.25782
68.30557 0.25773
68.32418 0.25776
68.34862 0.25763
68.36722 0.25763
68.39168 0.25746
68.41028 0.25744
68.43475 0.25723
68.45334 0.25718
68.47783 0.25693
68.49644 0.25685
68.52095 0.25657
68.53957 0.25646
68.56412 0.25614
68.58275 0.25600
68.60733 0.25565
68.62597 0.25548
68.65061 0.25509
68.66926 0.25489
68.69394 0.25447
68.71263 0.25425
68.73737 0.25378
68.75608 0.25353
68.78088 0.25303
68.79963 0.25276
68.82450 0.25223
68.84328 0.25193
68.86821 0.25136
68.88704 0.25103
68.91205 0.25043
68.93093 0.25008
68.95603 0.24945
68.97495 0.24908
69.00013 0.24841
69.01913 0.24801
69.04441 0.24732
69.06345 0.24690
69.08883 0.24617
69.10794 0.24573
69.13343 0.24498
69.15260 0.24452
69.17821 0.24374
69.19745 0.24326
69.22318 0.24245
69.24250 0.24195
69.26836 0.24111
69.28777 0.24060
69.31376 0.23974
69.33325 0.23920
69.35937 0.23832
69.37897 0.23777
69.40524 0.23687
69.42491 0.23631
69.45134 0.23539
69.47112 0.23481
69.49771 0.23387
69.51760 0.23328
69.54435 0.23232
69.56434 0.23172
69.59126 0.23075
69.61138 0.23014
69.63848 0.22915
69.65871 0.22853
69.68599 0.22754
69.70634 0.22691
69.73382 0.22591
69.75430 0.22528
69.78196 0.22427
69.80257 0.22363
69.83044 0.22262
69.85120 0.22198
69.87927 0.22096
69.90016 0.22032
69.92845 0.21930
69.94947 0.21866
69.97797 0.21764
69.99916 0.21700
70.02788 0.21599
70.04921 0.21535
70.07815 0.21435
70.09963 0.21372
70.12881 0.21272
70.15043 0.21210
70.17984 0.21111
70.20163 0.21050
70.23126 0.20952
70.25322 0.20892
70.28309 0.20796
70.30519 0.20737
70.33529 0.20643
70.35756 0.20586
70.38790 0.20493
70.41033 0.20437
70.44090 0.20347
70.46348 0.20294
70.49429 0.20206
70.51702 0.20154
70.54806 0.20069
70.57094 0.20020
70.60221 0.19938
70.62525 0.19891
70.65674 0.19812
70.67992 0.19767
70.71163 0.19692
70.73494 0.19650
70.76685 0.19579
70.79031 0.19539
70.82243 0.19472
70.84600 0.19435
70.87831 0.19372
70.90202 0.19339
70.93450 0.19280
70.95831 0.19250
70.99097 0.19196
71.01488 0.19169
71.04768 0.19119
71.07169 0.19096
71.10464 0.19051
71.12873 0.19031
71.16180 0.18991
71.18596 0.18975
71.21915 0.18941
71.24336 0.18929
71.27663 0.18899
71.30089 0.18891
71.33424 0.18866
71.35855 0.18862
71.39195 0.18843
71.41626 0.18842
71.44970 0.18829
71.47402 0.18832
71.50748 0.18824
71.53179 0.18831
71.56525 0.18829
71.58955 0.18840
71.62298 0.18843
71.64725 0.18858
71.68065 0.18866
71.70485 0.18885
71.73820 0.18898
71.76233 0.18921
71.79559 0.18940
71.81967 0.18967
71.85284 0.18990
71.87683 0.19021
71.90990 0.19049
71.93378 0.19083
71.96672 0.19117
71.99049 0.19154
72.02329 0.19193
72.04694 0.19234
72.07958 0.19277
72.10312 0.19321
72.13559 0.19368
72.15898 0.19415
72.19128 0.19467
72.21453 0.19517
72.24663 0.19573
72.26973 0.19626
72.30164 0.19685
72.32458 0.19740
72.35629 0.19803
72.37906 0.19861
72.41055 0.19928
72.43317 0.19988
72.46445 0.20057
72.48688 0.20120
72.51793 0.20192
72.54021 0.20256
72.57103 0.20331
72.59313 0.20397
72.62372 0.20474
72.64564 0.20542
72.67600 0.20621
72.69775 0.20690
72.72789 0.20772
72.74946 0.20842
72.77937 0.20925
72.80076 0.20996
72.83044 0.21080
72.85166 0.21152
72.88111 0.21238
72.90216 0.21310
72.93139 0.21397
72.95227 0.21470
72.98128 0.21557
73.00199 0.21630
73.03078 0.21718
73.05132 0.21791
73.07990 0.21879
73.10029 0.21952
73.12866 0.22040
73.14889 0.22113
73.17705 0.22200
73.19713 0.22274
73.22510 0.22360
73.24503 0.22433
73.27280 0.22518
73.29259 0.22591
73.32017 0.22675
73.33982 0.22746
73.36722 0.22830
73.38673 0.22901
73.41395 0.22983
73.43333 0.23052
73.46039 0.23133
73.47962 0.23201
73.50652 0.23280
73.52565 0.23347
73.55239 0.23424
73.57139 0.23490
73.59797 0.23565
73.61686 0.23628
73.64331 0.23701
73.66208 0.23764
73.68839 0.23834
73.70707 0.23894
73.73324 0.23962
73.75182 0.24021
73.77787 0.24086
73.79634 0.24143
73.82228 0.24205
73.84066 0.24259
73.86648 0.24319
73.88478 0.24371
73.91050 0.24427
73.92871 0.24477
73.95433 0.24531
73.97246 0.24578
73.99799 0.24628
74.01605 0.24673
74.04149 0.24720
74.05948 0.24763
74.08484 0.24806
74.10278 0.24846
74.12806 0.24885
74.14593 0.24923
74.17115 0.24959
74.18895 0.24994
74.21411 0.25026
74.23186 0.25058
74.25696 0.25086
74.27467 0.25115
74.29972 0.25139
74.31739 0.25166
74.34240 0.25187
74.36002 0.25210
74.38499 0.25227
74.40258 0.25247
74.42752 0.25260
74.44507 0.25278
74.46999 0.25286
74.48751 0.25301
74.51240 0.25305
74.52991 0.25317
74.55479 0.25317
74.57227 0.25326
74.59715 0.25322
74.61461 0.25328
74.63949 0.25320
74.65693 0.25323
74.68181 0.25310
74.69925 0.25310
74.72415 0.25293
74.74158 0.25291
74.76649 0.25270
74.78392 0.25264
74.80885 0.25239
74.82630 0.25230
74.85125 0.25200
74.86870 0.25189
74.89370 0.25155
74.91115 0.25141
74.93618 0.25103
74.95366 0.25086
74.97874 0.25044
74.99624 0.25024
75.02137 0.24978
75.03889 0.24955
75.06408 0.24905
75.08163 0.24879
75.10688 0.24825
75.12447 0.24797
75.14980 0.24739
75.16742 0.24708
75.19282 0.24646
75.21049 0.24613
75.23598 0.24547
75.25368 0.24511
75.27927 0.24442
75.29702 0.24403
75.32270 0.24331
75.34052 0.24290
75.36631 0.24214
75.38419 0.24170
75.41009 0.24091
75.42802 0.24045
75.45404 0.23962
75.47204 0.23914
75.49819 0.23828
75.51628 0.23779
75.54255 0.23690
75.56070 0.23638
75.58712 0.23546
75.60538 0.23492
75.63194 0.23397
75.65027 0.23342
75.67699 0.23245
75.69542 0.23187
75.72230 0.23088
75.74083 0.23029
75.76788 0.22927
75.78652 0.22866
75.81375 0.22762
75.83250 0.22701
75.85992 0.22595
75.87877 0.22532
75.90639 0.22424
75.92536 0.22361
75.95317 0.22251
75.97227 0.22186
76.00029 0.22075
76.01951 0.22010
76.04775 0.21898
76.06712 0.21832
76.09559 0.21719
76.11508 0.21652
76.14377 0.21539
76.16343 0.21472
76.19237 0.21358
76.21216 0.21291
76.24133 0.21176
76.26128 0.21109
76.29071 0.20995
76.31081 0.20928
76.34049 0.20814
76.36076 0.20748
76.39071 0.20634
76.41115 0.20568
76.44137 0.20455
76.46196 0.20390
76.49246 0.20278
76.51322 0.20214
76.54399 0.20104
76.56493 0.20040
76.59598 0.19931
76.61709 0.19869
76.64843 0.19763
76.66973 0.19702
76.70135 0.19597
76.72280 0.19538
76.75471 0.19436
76.77635 0.19379
76.80853 0.19279
76.83035 0.19224
76.86282 0.19128
76.88481 0.19075
76.91756 0.18982
76.93971 0.18931
76.97274 0.18842
76.99505 0.18794
77.02834 0.18709
77.05084 0.18663
77.08439 0.18582
77.10701 0.18539
77.14082 0.18463
77.16361 0.18423
77.19765 0.18351
77.22056 0.18315
77.25483 0.18248
77.27789 0.18215
77.31237 0.18154
77.33554 0.18124
77.37022 0.18068
77.39349 0.18042
77.42835 0.17991
77.45173 0.17970
77.48675 0.17924
77.51022 0.17906
77.54538 0.17867
77.56891 0.17853
77.60418 0.17820
77.62775 0.17810
77.66312 0.17783
77.68677 0.17777
77.72221 0.17756
77.74586 0.17755
77.78135 0.17740
77.80501 0.17742
77.84052 0.17734
77.86417 0.17741
77.89968 0.17739
77.92332 0.17750
77.95881 0.17754
77.98240 0.17769
78.01784 0.17780
78.04138 0.17799
78.07675 0.17816
78.10020 0.17839
78.13547 0.17862
78.15886 0.17889
78.19402 0.17918
78.21729 0.17949
78.25230 0.17983
78.27546 0.18018
78.31032 0.18058
78.33336 0.18097
78.36804 0.18143
78.39094 0.18185
78.42542 0.18236
78.44818 0.18282
78.48245 0.18337
78.50507 0.18386
78.53912 0.18447
78.56155 0.18499
78.59536 0.18564
78.61762 0.18619
78.65118 0.18689
78.67328 0.18746
78.70659 0.18820
78.72848 0.18880
78.76153 0.18957
78.78325 0.19020
78.81603 0.19101
78.83756 0.19166
78.87007 0.19250
78.89140 0.19316
78.92363 0.19403
78.94476 0.19472
78.97671 0.19561
78.99767 0.19631
79.02935 0.19723
79.05010 0.19795
79.08150 0.19889
79.10205 0.19961
79.13317 0.20057
79.15354 0.20131
79.18438 0.20228
79.20457 0.20302
79.23515 0.20401
79.25515 0.20476
79.28546 0.20575
79.30527 0.20651
79.33532 0.20751
79.35495 0.20826
79.38475 0.20927
79.40421 0.21003
79.43375 0.21103
79.45304 0.21179
79.48234 0.21279
79.50146 0.21355
79.53053 0.21454
79.54948 0.21530
79.57831 0.21629
79.59712 0.21703
79.62573 0.21801
79.64438 0.21876
79.67277 0.21972
79.69126 0.22046
79.71945 0.22141
79.73781 0.22213
79.76580 0.22307
79.78401 0.22378
79.81181 0.22471
79.82989 0.22540
79.85750 0.22631
79.87546 0.22699
79.90288 0.22787
79.92072 0.22854
79.94798 0.22940
79.96570 0.23005
79.99280 0.23088
80.01040 0.23152
80.03734 0.23232
80.05484 0.23294
80.08164 0.23371
80.09902 0.23431
80.12568 0.23506
80.14298 0.23563
80.16951 0.23635
80.18670 0.23690
80.21310 0.23758
80.23022 0.23812
80.25651 0.23876
80.27353 0.23927
80.29970 0.23988
80.31665 0.24037
80.34272 0.24094
80.35960 0.24140
80.38558 0.24194
80.40238 0.24237
80.42826 0.24287
80.44500 0.24328
80.47080 0.24373
80.48749 0.24411
80.51322 0.24453
80.52982 0.24489
80.55549 0.24526
80.57206 0.24559
80.59766 0.24592
80.61417 0.24622
80.63972 0.24651
80.65618 0.24678
80.68168 0.24702
80.69811 0.24726
80.72357 0.24746
80.73996 0.24767
80.76538 0.24783
80.78174 0.24802
80.80713 0.24812
80.82347 0.24828
80.84884 0.24834
80.86514 0.24847
80.89050 0.24848
80.90678 0.24858
80.93213 0.24855
80.94838 0.24861
80.97373 0.24854
80.98999 0.24857
81.01533 0.24845
81.03157 0.24845
81.05693 0.24828
81.07317 0.24826
81.09855 0.24804
81.11479 0.24799
81.14019 0.24773
81.15642 0.24764
81.18184 0.24733
81.19809 0.24722
81.22355 0.24686
81.23981 0.24672
81.26532 0.24632
81.28158 0.24614
81.30714 0.24570
81.32343 0.24550
81.34904 0.24500
81.36536 0.24477
81.39103 0.24424
81.40738 0.24398
81.43312 0.24340
81.44949 0.24311
81.47531 0.24249
81.49172 0.24218
81.51763 0.24151
81.53408 0.24117
81.56008 0.24046
81.57657 0.24010
81.60267 0.23935
81.61921 0.23896
81.64542 0.23817
81.66201 0.23776
81.68833 0.23693
81.70497 0.23649
81.73141 0.23562
81.74814 0.23516
81.77470 0.23426
81.79149 0.23377
81.81819 0.23283
81.83506 0.23233
81.86191 0.23135
81.87884 0.23083
81.90585 0.22982
81.92287 0.22928
81.95004 0.22824
81.96715 0.22767
81.99449 0.22661
82.01170 0.22603
82.03921 0.22493
82.05652 0.22433
82.08422 0.22321
82.10163 0.22260
82.12953 0.22145
82.14707 0.22082
82.17517 0.21965
82.19281 0.21901
82.22113 0.21782
82.23889 0.21717
82.26744 0.21596
82.28533 0.21530
82.31411 0.21408
82.33214 0.21341
82.36117 0.21217
82.37932 0.21149
82.40861 0.21024
82.42691 0.20956
82.45645 0.20830
82.47491 0.20761
82.50473 0.20634
82.52333 0.20565
82.55343 0.20438
82.57220 0.20369
82.60258 0.20242
82.62152 0.20173
82.65221 0.20046
82.67131 0.19977
82.70230 0.19851
82.72158 0.19782
82.75288 0.19656
82.77234 0.19589
82.80397 0.19464
82.82360 0.19397
82.85555 0.19274
82.87537 0.19208
82.90766 0.19086
82.92766 0.19021
82.96029 0.18901
82.98049 0.18838
83.01346 0.18721
83.03384 0.18659
83.06715 0.18544
83.08775 0.18484
83.12139 0.18372
83.14216 0.18314
83.17615 0.18206
83.19713 0.18150
83.23145 0.18045
83.25261 0.17992
83.28727 0.17891
83.30861 0.17840
83.34361 0.17744
83.36514 0.17696
83.40046 0.17604
83.42216 0.17559
83.45779 0.17472
83.47966 0.17430
83.51559 0.17349
83.53762 0.17310
83.57383 0.17234
83.59601 0.17199
83.63248 0.17129
83.65480 0.17097
83.69153 0.17033
83.71398 0.17006
83.75094 0.16948
83.77349 0.16924
83.81065 0.16873
83.83331 0.16853
83.87065 0.16809
83.89339 0.16793
83.93088 0.16756
83.95370 0.16744
83.99132 0.16714
84.01416 0.16707
84.05187 0.16683
84.07477 0.16681
84.11255 0.16665
84.13544 0.16666
84.17325 0.16657
84.19614 0.16663
84.23396 0.16662
84.25683 0.16672
84.29461 0.16678
84.31742 0.16693
84.35515 0.16705
84.37789 0.16725
84.41552 0.16745
84.43820 0.16768
84.47571 0.16795
84.49829 0.16823
84.53565 0.16856
84.55813 0.16888
84.59532 0.16928
84.61766 0.16964
84.65464 0.17011
84.67683 0.17050
84.71359 0.17103
84.73565 0.17147
84.77217 0.17206
84.79404 0.17252
84.83030 0.17317
84.85199 0.17367
84.88797 0.17437
84.90948 0.17491
84.94517 0.17566
84.96650 0.17622
85.00188 0.17702
85.02298 0.17761
85.05805 0.17846
85.07898 0.17908
85.11372 0.17997
85.13442 0.18061
85.16883 0.18154
85.18934 0.18220
85.22342 0.18316
85.24371 0.18384
85.27746 0.18484
85.29754 0.18554
85.33096 0.18657
85.35082 0.18728
85.38390 0.18833
85.40355 0.18906
85.43629 0.19013
85.45574 0.19087
85.48816 0.19196
85.50741 0.19271
85.53950 0.19382
85.55855 0.19458
85.59032 0.19570
85.60916 0.19646
85.64062 0.19759
85.65928 0.19836
85.69043 0.19949
85.70889 0.20026
85.73975 0.20140
85.75803 0.20217
85.78860 0.20331
85.80669 0.20407
85.83698 0.20521
85.85490 0.20598
85.88491 0.20710
85.90267 0.20787
85.93241 0.20898
85.95001 0.20974
85.97950 0.21085
85.99694 0.21160
86.02619 0.21269
86.04346 0.21343
86.07247 0.21451
86.08961 0.21524
86.11839 0.21630
86.13538 0.21701
86.16394 0.21806
86.18081 0.21876
86.20916 0.21978
86.22590 0.22047
86.25405 0.22146
86.27065 0.22213
86.29862 0.22310
86.31511 0.22376
86.34289 0.22469
86.35926 0.22533
86.38687 0.22624
86.40314 0.22686
86.43059 0.22773
86.44674 0.22833
86.47404 0.22917
86.49010 0.22975
86.51725 0.23056
86.53322 0.23112
86.56023 0.23188
86.57611 0.23242
86.60299 0.23315
86.61879 0.23366
86.64555 0.23435
86.66126 0.23484
86.68791 0.23549
86.70355 0.23595
86.73010 0.23656
86.74566 0.23700
86.77211 0.23756
86.78761 0.23797
86.81397 0.23849
86.82941 0.23887
86.85568 0.23935
86.87107 0.23971
86.89727 0.24014
86.91261 0.24047
86.93874 0.24085
86.95401 0.24115
86.98008 0.24148
86.99533 0.24175
87.02135 0.24204
87.03654 0.24229
87.06251 0.24252
87.07767 0.24274
87.10360 0.24293
87.11874 0.24311
87.14464 0.24325
87.15973 0.24340
87.18561 0.24349
87.20067 0.24362
87.22653 0.24366
87.24159 0.24375
87.26744 0.24374
87.28247 0.24381
87.30831 0.24374
87.32334 0.24378
87.34918 0.24366
87.36419 0.24367
87.39004 0.24350
87.40505 0.24348
87.43092 0.24326
87.44592 0.24321
87.47181 0.24294
87.48682 0.24286
87.51274 0.24253
87.52774 0.24242
87.55370 0.24205
87.56872 0.24191
87.59473 0.24149
87.60977 0.24132
87.63583 0.24085
87.65087 0.24065
87.67699 0.24013
87.69206 0.23990
87.71824 0.23933
87.73333 0.23907
87.75959 0.23846
87.77471 0.23817
87.80105 0.23751
87.81622 0.23720
87.84265 0.23648
87.85784 0.23615
87.88437 0.23539
87.89960 0.23503
87.92623 0.23422
87.94152 0.23383
87.96826 0.23298
87.98360 0.23257
88.01047 0.23167
88.02586 0.23124
88.05286 0.23030
88.06831 0.22985
88.09544 0.22887
88.11096 0.22839
88.13824 0.22737
88.15383 0.22687
88.18128 0.22581
88.19694 0.22529
88.22455 0.22419
88.24030 0.22365
88.26808 0.22252
88.28391 0.22196
88.31188 0.22080
88.32781 0.22022
88.35598 0.21902
88.37200 0.21843
88.40037 0.21720
88.41650 0.21659
88.44509 0.21534
88.46133 0.21471
88.49015 0.21343
88.50649 0.21279
88.53554 0.21149
88.55202 0.21084
88.58133 0.20951
88.59792 0.20885
88.62749 0.20750
88.64423 0.20683
88.67407 0.20547
88.69093 0.20479
88.72105 0.20341
88.73806 0.20272
88.76848 0.20134
88.78566 0.20065
88.81638 0.19925
88.83370 0.19855
88.86474 0.19715
88.88224 0.19645
88.91361 0.19505
88.93126 0.19435
88.96298 0.19294
88.98081 0.19225
89.01287 0.19084
89.03090 0.19015
89.06333 0.18875
89.08152 0.18807
89.11432 0.18668
89.13272 0.18600
89.16590 0.18462
89.18449 0.18395
89.21806 0.18260
89.23685 0.18193
89.27081 0.18060
89.28980 0.17995
89.32417 0.17864
89.34336 0.17801
89.37814 0.17672
89.39755 0.17610
89.43273 0.17485
89.45236 0.17426
89.48796 0.17304
89.50777 0.17247
89.54378 0.17129
89.56381 0.17074
89.60023 0.16960
89.62047 0.16908
89.65729 0.16799
89.67773 0.16749
89.71495 0.16646
89.73559 0.16599
89.77319 0.16501
89.79400 0.16457
89.83198 0.16365
89.85299 0.16325
89.89133 0.16238
89.91249 0.16201
89.95117 0.16122
89.97249 0.16089
90.01147 0.16016
90.03297 0.15987
90.07225 0.15921
90.09385 0.15896
90.13339 0.15838
90.15511 0.15817
90.19488 0.15767
90.21670 0.15750
90.25666 0.15707
90.27855 0.15695
90.31868 0.15660
90.34064 0.15652
90.38090 0.15625
90.40290 0.15622
90.44323 0.15603
90.46525 0.15604
90.50563 0.15595
90.52761 0.15600
90.56800 0.15598
90.58999 0.15608
90.63034 0.15615
90.65228 0.15629
90.69256 0.15644
90.71442 0.15663
90.75458 0.15687
90.77635 0.15710
90.81637 0.15741
90.83803 0.15768
90.87786 0.15807
90.89940 0.15839
90.93901 0.15885
90.96039 0.15921
90.99975 0.15975
91.02097 0.16015
91.06006 0.16076
91.08111 0.16119
91.11989 0.16187
91.14077 0.16234
91.17922 0.16309
91.19989 0.16359
91.23799 0.16439
91.25846 0.16493
91.29620 0.16579
91.31646 0.16636
91.35382 0.16727
91.37385 0.16787
91.41083 0.16883
91.43064 0.16945
91.46722 0.17047
91.48680 0.17111
91.52299 0.17217
91.54235 0.17283
91.57814 0.17393
91.59727 0.17461
91.63265 0.17575
91.65154 0.17645
91.68652 0.17761
91.70520 0.17833
91.73978 0.17952
91.75822 0.18025
91.79241 0.18146
91.81063 0.18220
91.84442 0.18344
91.86245 0.18419
91.89586 0.18544
91.91367 0.18619
91.94671 0.18745
91.96429 0.18822
91.99696 0.18949
92.01436 0.19025
92.04669 0.19153
92.06388 0.19230
92.09585 0.19358
92.11285 0.19434
92.14450 0.19562
92.16132 0.19639
92.19264 0.19766
92.20927 0.19842
92.24028 0.19969
92.25674 0.20044
92.28745 0.20170
92.30375 0.20245
92.33417 0.20369
92.35031 0.20443
92.38045 0.20566
92.39644 0.20639
92.42631 0.20760
92.44215 0.20832
92.47177 0.20951
92.48746 0.21021
92.51684 0.21138
92.53240 0.21208
92.56155 0.21321
92.57698 0.21389
92.60590 0.21500
92.62120 0.21567
92.64991 0.21675
92.66510 0.21740
92.69361 0.21845
92.70869 0.21908
92.73701 0.22009
92.75199 0.22070
92.78012 0.22168
92.79498 0.22227
92.82295 0.22321
92.83772 0.22378
92.86553 0.22468
92.88021 0.22523
92.90786 0.22609
92.92245 0.22662
92.94997 0.22744
92.96449 0.22794
92.99187 0.22871
93.00630 0.22919
93.03356 0.22992
93.04792 0.23038
93.07507 0.23106
93.08935 0.23149
93.11639 0.23213
93.13061 0.23253
93.15755 0.23312
93.17172 0.23350
93.19857 0.23404
93.21268 0.23439
93.23945 0.23488
93.25351 0.23520
93.28021 0.23564
93.29421 0.23593
93.32085 0.23632
93.33481 0.23659
93.36138 0.23692
93.37530 0.23716
93.40183 0.23744
93.41571 0.23765
93.44219 0.23787
93.45605 0.23806
93.48249 0.23823
93.49632 0.23838
93.52273 0.23850
93.53654 0.23862
93.56293 0.23868
93.57671 0.23878
93.60310 0.23878
93.61686 0.23885
93.64323 0.23880
93.65697 0.23884
93.68335 0.23873
93.69709 0.23874
93.72348 0.23858
93.73720 0.23856
93.76361 0.23834
93.77734 0.23829
93.80377 0.23801
93.81749 0.23794
93.84396 0.23760
93.85768 0.23750
93.88418 0.23711
93.89790 0.23698
93.92445 0.23654
93.93819 0.23637
93.96479 0.23588
93.97856 0.23569
94.00522 0.23514
94.01899 0.23492
94.04572 0.23431
94.05951 0.23407
94.08632 0.23341
94.10015 0.23314
94.12704 0.23243
94.14090 0.23213
94.16789 0.23137
94.18178 0.23104
94.20887 0.23023
94.22280 0.22988
94.25000 0.22902
94.26397 0.22864
94.29129 0.22773
94.30532 0.22733
94.33276 0.22637
94.34684 0.22595
94.37443 0.22494
94.38856 0.22449
94.41630 0.22344
94.43048 0.22298
94.45837 0.22188
94.47263 0.22139
94.50069 0.22025
94.51501 0.21974
94.54325 0.21856
94.55767 0.21803
94.58610 0.21681
94.60058 0.21626
94.62921 0.21500
94.64378 0.21444
94.67263 0.21314
94.68730 0.21256
94.71637 0.21123
94.73114 0.21063
94.76044 0.20927
94.77532 0.20866
94.80487 0.20727
94.81985 0.20664
94.84966 0.20522
94.86476 0.20458
94.89484 0.20314
94.91006 0.20249
94.94043 0.20102
94.95578 0.20036
94.98645 0.19887
95.00195 0.19820
95.03294 0.19670
95.04856 0.19602
95.07988 0.19450
95.09567 0.19382
95.12733 0.19229
95.14327 0.19160
95.17529 0.19006
95.19139 0.18937
95.22378 0.18783
95.24006 0.18713
95.27283 0.18558
95.28928 0.18489
95.32246 0.18335
95.33909 0.18266
95.37267 0.18112
95.38951 0.18043
95.42352 0.17890
95.44053 0.17822
95.47499 0.17670
95.49221 0.17603
95.52712 0.17453
95.54456 0.17387
95.57993 0.17238
95.59757 0.17173
95.63341 0.17027
95.65127 0.16964
95.68760 0.16821
95.70567 0.16759
95.74249 0.16619
95.76079 0.16559
95.79810 0.16423
95.81663 0.16365
95.85443 0.16234
95.87318 0.16178
95.91148 0.16051
95.93044 0.15997
95.96923 0.15875
95.98841 0.15824
96.02769 0.15708
96.04709 0.15660
96.08684 0.15550
96.10645 0.15505
96.14666 0.15401
96.16648 0.15360
96.20714 0.15263
96.22714 0.15225
96.26822 0.15135
96.28842 0.15101
96.32990 0.15019
96.35024 0.14988
96.39209 0.14914
96.41260 0.14887
96.45478 0.14821
96.47540 0.14799
96.51788 0.14742
96.53862 0.14724
96.58136 0.14676
96.60220 0.14662
96.64514 0.14623
96.66603 0.14613
96.70915 0.14584
96.73009 0.14579
96.77332 0.14558
96.79429 0.14558
96.83758 0.14547
96.85855 0.14551
96.90185 0.14550
96.92278 0.14559
96.96604 0.14567
96.98693 0.14580
97.03010 0.14598
97.05092 0.14616
97.09395 0.14642
97.11466 0.14665
97.15750 0.14701
97.17809 0.14727
97.22070 0.14772
97.24115 0.14803
97.28349 0.14856
97.30377 0.14891
97.34579 0.14953
97.36590 0.14992
97.40757 0.15062
97.42748 0.15105
97.46878 0.15182
97.48849 0.15228
97.52938 0.15313
97.54887 0.15363
97.58933 0.15454
97.60860 0.15507
97.64861 0.15605
97.66767 0.15661
97.70721 0.15765
97.72601 0.15824
97.76509 0.15933
97.78363 0.15994
97.82222 0.16109
97.84055 0.16173
97.87865 0.16292
97.89673 0.16358
97.93436 0.16481
97.95217 0.16549
97.98932 0.16676
98.00690 0.16745
98.04357 0.16876
98.06093 0.16947
98.09711 0.17081
98.11422 0.17152
98.14994 0.17289
98.16683 0.17361
98.20209 0.17500
98.21875 0.17573
98.25357 0.17713
98.27001 0.17787
98.30439 0.17929
98.32061 0.18004
98.35457 0.18145
98.37060 0.18221
98.40415 0.18363
98.41997 0.18438
98.45313 0.18581
98.46874 0.18656
98.50152 0.18798
98.51697 0.18873
98.54937 0.19014
98.56462 0.19089
98.59667 0.19230
98.61177 0.19303
98.64348 0.19443
98.65840 0.19516
98.68979 0.19654
98.70455 0.19726
98.73562 0.19862
98.75023 0.19934
98.78101 0.20068
98.79546 0.20138
98.82596 0.20270
98.84028 0.20338
98.87051 0.20467
98.88470 0.20535
98.91467 0.20661
98.92874 0.20727
98.95846 0.20850
98.97240 0.20915
99.00189 0.21034
99.01571 0.21097
99.04498 0.21213
99.05870 0.21275
99.08777 0.21387
99.10138 0.21446
99.13024 0.21554
99.14375 0.21612
99.17243 0.21716
99.18585 0.21771
99.21436 0.21871
99.22768 0.21925
99.25602 0.22020
99.26928 0.22071
99.29747 0.22162
99.31063 0.22210
99.33868 0.22296
99.35178 0.22343
99.37969 0.22424
99.39270 0.22468
99.42049 0.22544
99.43345 0.22586
99.46113 0.22657
99.47401 0.22696
99.50158 0.22761
99.51442 0.22798
99.54189 0.22858
99.55467 0.22892
99.58205 0.22947
99.59478 0.22979
99.62208 0.23028
99.63477 0.23057
99.66200 0.23100
99.67464 0.23126
99.70181 0.23164
99.71441 0.23187
99.74153 0.23219
99.75410 0.23240
99.78117 0.23266
99.79369 0.23284
99.82073 0.23304
99.83324 0.23320
99.86024 0.23334
99.87271 0.23346
99.89969 0.23355
99.91215 0.23365
99.93911 0.23367
99.95155 0.23374
99.97851 0.23370
99.99092 0.23374
100.01788 0.23364
100.03030 0.23365
100.05727 0.23350
100.06966 0.23348
100.09664 0.23326
100.10904 0.23322
100.13604 0.23294
100.14844 0.23287
100.17548 0.23253
100.18787 0.23243
100.21495 0.23203
100.22735 0.23191
100.25447 0.23145
100.26688 0.23129
100.29406 0.23077
100.30648 0.23060
100.33372 0.23002
100.34616 0.22981
100.37347 0.22918
100.38594 0.22895
100.41333 0.22825
100.42581 0.22799
100.45329 0.22724
100.46580 0.22696
100.49338 0.22615
100.50591 0.22584
100.53360 0.22498
100.54617 0.22465
100.57397 0.22373
100.58658 0.22337
100.61451 0.22240
100.62716 0.22202
100.65523 0.22100
100.66792 0.22059
100.69613 0.21952
100.70889 0.21910
100.73725 0.21797
100.75006 0.21752
100.77860 0.21635
100.79145 0.21588
100.82016 0.21466
100.83311 0.21417
100.86201 0.21291
100.87500 0.21240
100.90410 0.21109
100.91718 0.21056
100.94650 0.20921
100.95966 0.20867
100.98921 0.20728
101.00244 0.20672
101.03223 0.20529
101.04556 0.20471
101.07560 0.20325
101.08904 0.20266
101.11935 0.20115
101.13289 0.20055
101.16348 0.19902
101.17712 0.19840
101.20800 0.19684
101.22177 0.19621
101.25297 0.19462
101.26687 0.19398
101.29839 0.19237
101.31241 0.19172
101.34429 0.19009
101.35845 0.18943
101.39068 0.18778
101.40498 0.18712
101.43760 0.18545
101.45205 0.18479
101.48506 0.18311
101.49967 0.18244
101.53310 0.18075
101.54787 0.18008
101.58173 0.17839
101.59670 0.17771
101.63101 0.17602
101.64613 0.17535
101.68091 0.17366
101.69624 0.17299
101.73151 0.17131
101.74704 0.17064
101.78281 0.16897
101.79852 0.16831
101.83481 0.16666
101.85075 0.16601
101.88758 0.16437
101.90374 0.16373
101.94112 0.16212
101.95747 0.16149
101.99542 0.15991
102.01203 0.15930
102.05055 0.15775
102.06736 0.15716
102.10647 0.15564
102.12354 0.15507
102.16324 0.15360
102.18053 0.15305
102.22083 0.15163
102.23836 0.15110
102.27925 0.14974
102.29701 0.14923
102.33850 0.14793
102.35649 0.14745
102.39857 0.14621
102.41681 0.14576
102.45946 0.14459
102.47789 0.14417
102.52109 0.14308
102.53973 0.14270
102.58346 0.14169
102.60232 0.14134
102.64655 0.14041
102.66558 0.14010
102.71028 0.13926
102.72948 0.13898
102.77462 0.13824
102.79398 0.13801
102.83950 0.13736
102.85895 0.13717
102.90480 0.13662
102.92440 0.13648
102.97052 0.13603
102.99018 0.13593
103.03653 0.13559
103.05624 0.13553
103.10274 0.13530
103.12248 0.13528
103.16906 0.13516
103.18881 0.13519
103.23542 0.13517
103.25513 0.13525
103.30169 0.13534
103.32135 0.13547
103.36781 0.13566
103.38739 0.13583
103.43367 0.13613
103.45315 0.13635
103.49920 0.13675
103.51853 0.13701
103.56428 0.13752
103.58346 0.13781
103.62887 0.13842
103.64788 0.13876
103.69289 0.13945
103.71172 0.13983
103.75630 0.14062
103.77490 0.14104
103.81900 0.14191
103.83738 0.14236
103.88097 0.14332
103.89913 0.14380
103.94220 0.14483
103.96011 0.14535
104.00263 0.14645
104.02028 0.14699
104.06223 0.14816
104.07963 0.14873
104.12100 0.14997
104.13812 0.15056
104.17891 0.15185
104.19580 0.15246
104.23600 0.15380
104.25263 0.15443
104.29225 0.15582
104.30863 0.15648
104.34768 0.15790
104.36380 0.15857
104.40227 0.16003
104.41814 0.16071
104.45605 0.16220
104.47168 0.16290
104.50904 0.16442
104.52444 0.16512
104.56127 0.16666
104.57644 0.16737
104.61275 0.16892
104.62769 0.16964
104.66350 0.17120
104.67823 0.17192
104.71355 0.17350
104.72808 0.17422
104.76293 0.17580
104.77726 0.17652
104.81166 0.17810
104.82579 0.17881
104.85975 0.18039
104.87370 0.18110
104.90725 0.18267
104.92102 0.18338
104.95417 0.18494
104.96778 0.18564
105.00055 0.18718
105.01399 0.18788
105.04640 0.18940
105.05968 0.19009
105.09174 0.19159
105.10489 0.19227
105.13662 0.19375
105.14960 0.19442
105.18102 0.19587
105.19389 0.19653
105.22501 0.19795
105.23774 0.19859
105.26858 0.19998
105.28119 0.20061
105.31176 0.20196
105.32426 0.20257
105.35457 0.20389
105.36697 0.20449
105.39704 0.20576
105.40932 0.20634
105.43917 0.20758
105.45135 0.20814
105.48099 0.20933
105.49308 0.20988
105.52251 0.21102
105.53451 0.21155
105.56375 0.21265
105.57568 0.21315
105.60475 0.21420
105.61659 0.21469
105.64550 0.21569
105.65725 0.21615
105.68601 0.21710
105.69770 0.21754
105.72630 0.21843
105.73792 0.21885
105.76640 0.21969
105.77796 0.22008
105.80632 0.22087
105.81781 0.22124
105.84605 0.22197
105.85750 0.22231
105.88564 0.22298
105.89704 0.22331
105.92508 0.22392
105.93642 0.22422
105.96438 0.22477
105.97569 0.22504
106.00357 0.22553
106.01482 0.22578
106.04264 0.22620
106.05387 0.22643
106.08162 0.22679
106.09281 0.22699
106.12052 0.22729
106.13168 0.22746
106.15934 0.22770
106.17048 0.22785
106.19811 0.22802
106.20921 0.22814
106.23681 0.22825
106.24790 0.22834
106.27549 0.22839
106.28656 0.22845
106.31414 0.22843
106.32518 0.22847
106.35276 0.22839
106.36381 0.22840
106.39139 0.22825
106.40242 0.22824
106.43002 0.22802
106.44103 0.22799
106.46865 0.22771
106.47968 0.22764
106.50734 0.22730
106.51835 0.22721
106.54605 0.22680
106.55707 0.22668
106.58481 0.22621
106.59583 0.22607
106.62363 0.22553
106.63467 0.22536
106.66253 0.22476
106.67358 0.22457
106.70151 0.22391
106.71257 0.22369
106.74059 0.22296
106.75168 0.22272
106.77980 0.22193
106.79089 0.22167
106.81910 0.22082
106.83023 0.22053
106.85856 0.21962
106.86971 0.21931
106.89815 0.21834
106.90934 0.21801
106.93792 0.21698
106.94915 0.21663
106.97787 0.21554
106.98912 0.21517
107.01799 0.21403
107.02931 0.21363
107.05835 0.21244
107.06970 0.21202
107.09891 0.21077
107.11032 0.21033
107.13972 0.20903
107.15119 0.20858
107.18079 0.20722
107.19231 0.20675
107.22212 0.20535
107.23372 0.20486
107.26376 0.20341
107.27542 0.20290
107.30570 0.20141
107.31746 0.20089
107.34799 0.19935
107.35981 0.19882
107.39061 0.19724
107.40253 0.19669
107.43362 0.19508
107.44563 0.19451
107.47702 0.19286
107.48914 0.19228
107.52085 0.19060
107.53307 0.19001
107.56512 0.18829
107.57745 0.18769
107.60986 0.18595
107.62232 0.18534
107.65511 0.18358
107.66768 0.18296
107.70086 0.18117
107.71358 0.18055
107.74718 0.17874
107.76003 0.17811
107.79407 0.17629
107.80708 0.17565
107.84157 0.17382
107.85473 0.17318
107.88970 0.17134
107.90304 0.17070
107.93852 0.16886
107.95202 0.16822
107.98803 0.16637
108.00172 0.16574
108.03827 0.16390
108.05213 0.16326
108.08927 0.16143
108.10333 0.16081
108.14106 0.15899
108.15535 0.15837
108.19369 0.15657
108.20818 0.15595
108.24716 0.15418
108.26186 0.15358
108.30150 0.15183
108.31645 0.15124
108.35677 0.14953
108.37194 0.14896
108.41295 0.14728
108.42835 0.14673
108.47006 0.14510
108.48570 0.14456
108.52813 0.14298
108.54401 0.14247
108.58716 0.14095
108.60330 0.14045
108.64718 0.13900
108.66356 0.13853
108.70814 0.13715
108.72475 0.13671
108.77005 0.13540
108.78691 0.13499
108.83290 0.13376
108.84997 0.13338
108.89663 0.13224
108.91392 0.13189
108.96122 0.13085
108.97868 0.13054
109.02657 0.12959
109.04425 0.12931
109.09269 0.12847
109.11054 0.12823
109.15948 0.12750
109.17745 0.12731
109.22682 0.12668
109.24491 0.12653
109.29465 0.12602
109.31284 0.12591
109.36286 0.12552
109.38112 0.12546
109.43135 0.12519
109.44965 0.12517
109.50001 0.12502
109.51830 0.12504
109.56870 0.12501
109.58697 0.12508
109.63731 0.12518
109.65552 0.12529
109.70573 0.12551
109.72387 0.12567
109.77386 0.12600
109.79187 0.12620
109.84158 0.12666
109.85943 0.12690
109.90877 0.12747
109.92647 0.12775
109.97537 0.12843
109.99289 0.12875
110.04130 0.12954
110.05860 0.12989
110.10646 0.13078
110.12352 0.13117
110.17079 0.13216
110.18763 0.13259
110.23427 0.13366
110.25085 0.13412
110.29682 0.13528
110.31314 0.13576
110.35844 0.13700
110.37452 0.13751
110.41911 0.13883
110.43491 0.13937
110.47880 0.14075
110.49434 0.14131
110.53752 0.14275
110.55279 0.14333
110.59526 0.14483
110.61027 0.14543
110.65206 0.14697
110.66679 0.14758
110.70788 0.14917
110.72236 0.14980
110.76277 0.15143
110.77702 0.15207
110.81677 0.15373
110.83076 0.15438
110.86987 0.15606
110.88363 0.15672
110.92213 0.15843
110.93566 0.15909
110.97355 0.16081
110.98685 0.16148
111.02416 0.16322
111.03727 0.16389
111.07403 0.16563
111.08692 0.16630
111.12314 0.16804
111.13583 0.16871
111.17154 0.17045
111.18407 0.17112
111.21929 0.17286
111.23162 0.17353
111.26637 0.17525
111.27854 0.17591
111.31285 0.17762
111.32486 0.17827
111.35874 0.17997
111.37060 0.18061
111.40408 0.18229
111.41578 0.18293
111.44888 0.18457
111.46045 0.18520
111.49318 0.18682
111.50461 0.18744
111.53700 0.18903
111.54832 0.18964
111.58038 0.19119
111.59156 0.19179
111.62331 0.19331
111.63440 0.19389
111.66586 0.19537
111.67683 0.19594
111.70801 0.19738
111.71888 0.19793
111.74980 0.19933
111.76057 0.19986
111.79126 0.20122
111.80193 0.20174
111.83239 0.20304
111.84298 0.20354
111.87322 0.20480
111.88372 0.20528
111.91376 0.20648
111.92419 0.20695
111.95404 0.20810
111.96439 0.20855
111.99406 0.20964
112.00435 0.21007
112.03386 0.21111
112.04408 0.21152
112.07343 0.21250
112.08360 0.21288
112.11281 0.21381
112.12290 0.21417
112.15199 0.21503
112.16204 0.21538
112.19100 0.21617
112.20100 0.21649
112.22985 0.21723
112.23980 0.21753
112.26855 0.21821
112.27845 0.21848
112.30711 0.21909
112.31697 0.21935
112.34555 0.21989
112.35538 0.22012
112.38389 0.22060
112.39369 0.22081
112.42213 0.22122
112.43188 0.22140
112.46028 0.22174
112.47001 0.22190
112.49835 0.22218
112.50805 0.22232
112.53636 0.22252
112.54604 0.22263
112.57432 0.22277
112.58398 0.22286
112.61224 0.22293
112.62188 0.22299
112.65013 0.22299
112.65975 0.22303
112.68800 0.22296
112.69762 0.22298
112.72587 0.22284
112.73547 0.22283
112.76374 0.22262
112.77332 0.22259
112.80162 0.22230
112.81120 0.22225
112.83953 0.22190
112.84911 0.22182
112.87748 0.22140
112.88705 0.22130
112.91546 0.22081
112.92504 0.22069
112.95352 0.22013
112.96310 0.21998
112.99164 0.21936
113.00123 0.21919
113.02984 0.21849
113.03945 0.21830
113.06815 0.21754
113.07777 0.21732
113.10656 0.21649
113.11620 0.21626
113.14510 0.21537
113.15474 0.21511
113.18375 0.21415
113.19344 0.21387
113.22258 0.21285
113.23227 0.21255
113.26154 0.21146
113.27127 0.21114
113.30069 0.21000
113.31046 0.20966
113.34004 0.20845
113.34984 0.20809
113.37959 0.20682
113.38942 0.20645
113.41935 0.20512
113.42924 0.20472
113.45936 0.20334
113.46930 0.20293
113.49963 0.20149
113.50960 0.20106
113.54016 0.19957
113.55021 0.19913
113.58101 0.19759
113.59111 0.19713
113.62216 0.19554
113.63232 0.19506
113.66364 0.19342
113.67387 0.19293
113.70548 0.19125
113.71579 0.19075
113.74770 0.18902
113.75811 0.18850
113.79034 0.18674
113.80081 0.18621
113.83339 0.18441
113.84397 0.18387
113.87691 0.18203
113.88758 0.18148
113.92090 0.17961
113.93168 0.17905
113.96540 0.17715
113.97630 0.17659
114.01045 0.17466
114.02148 0.17409
114.05608 0.17214
114.06721 0.17156
114.10229 0.16959
114.11358 0.16901
114.14917 0.16702
114.16059 0.16644
114.19671 0.16444
114.20829 0.16386
114.24497 0.16185
114.25668 0.16127
114.29395 0.15926
114.30586 0.15867
114.34374 0.15667
114.35582 0.15609
114.39434 0.15408
114.40660 0.15351
114.44580 0.15152
114.45826 0.15094
114.49816 0.14897
114.51083 0.14840
114.55147 0.14645
114.56433 0.14590
114.60573 0.14397
114.61883 0.14343
114.66101 0.14154
114.67432 0.14100
114.71732 0.13915
114.73086 0.13863
114.77469 0.13683
114.78848 0.13633
114.83317 0.13458
114.84720 0.13409
114.89275 0.13240
114.90702 0.13194
114.95346 0.13031
114.96798 0.12987
115.01528 0.12832
115.03005 0.12791
115.07823 0.12644
115.09324 0.12605
115.14228 0.12467
115.15752 0.12431
115.20740 0.12302
115.22285 0.12269
115.27354 0.12151
115.28922 0.12121
115.34067 0.12013
115.35653 0.11987
115.40869 0.11891
115.42474 0.11868
115.47754 0.11785
115.49375 0.11766
115.54712 0.11694
115.56347 0.11679
115.61732 0.11621
115.63377 0.11610
115.68801 0.11565
115.70451 0.11558
115.75904 0.11526
115.77560 0.11524
115.83030 0.11506
115.84687 0.11507
115.90164 0.11504
115.91816 0.11509
115.97288 0.11519
115.98936 0.11529
116.04391 0.11553
116.06032 0.11567
116.11460 0.11605
116.13088 0.11623
116.18480 0.11673
116.20092 0.11695
116.25437 0.11759
116.27029 0.11785
116.32319 0.11861
116.33894 0.11891
116.39122 0.11979
116.40674 0.12011
116.45832 0.12111
116.47360 0.12147
116.52444 0.12258
116.53949 0.12297
116.58953 0.12417
116.60430 0.12459
116.65352 0.12589
116.66804 0.12634
116.71642 0.12772
116.73066 0.12820
116.77819 0.12966
116.79217 0.13015
116.83884 0.13169
116.85253 0.13221
116.89833 0.13381
116.91176 0.13434
116.95672 0.13601
116.96987 0.13656
117.01399 0.13827
117.02689 0.13883
117.07019 0.14060
117.08285 0.14117
117.12535 0.14297
117.13776 0.14355
117.17948 0.14539
117.19165 0.14598
117.23263 0.14784
117.24458 0.14844
117.28484 0.15032
117.29655 0.15092
117.33611 0.15282
117.34764 0.15342
117.38654 0.15533
117.39785 0.15594
117.43611 0.15785
117.44723 0.15846
117.48489 0.16037
117.49583 0.16098
117.53291 0.16288
117.54370 0.16349
117.58023 0.16539
117.59083 0.16599
117.62684 0.16788
117.63728 0.16847
117.67280 0.17034
117.68310 0.17093
117.71814 0.17278
117.72829 0.17336
117.76289 0.17519
117.77292 0.17576
117.80711 0.17756
117.81699 0.17812
117.85078 0.17989
117.86055 0.18045
117.89396 0.18218
117.90361 0.18272
117.93666 0.18442
117.94621 0.18495
117.97893 0.18661
117.98838 0.18713
118.02079 0.18874
118.03014 0.18925
118.06225 0.19082
118.07151 0.19131
118.10334 0.19283
118.11251 0.19331
118.14408 0.19478
118.15316 0.19525
118.18448 0.19667
118.19350 0.19711
118.22460 0.19848
118.23353 0.19891
118.26441 0.20022
118.27327 0.20064
118.30394 0.20189
118.31274 0.20229
118.34323 0.20348
118.35197 0.20386
118.38229 0.20500
118.39096 0.20536
118.42111 0.20643
118.42974 0.20678
118.45974 0.20779
118.46832 0.20811
118.49818 0.20905
118.50671 0.20936
118.53645 0.21023
118.54492 0.21052
118.57454 0.21133
118.58297 0.21160
118.61249 0.21234
118.62089 0.21258
118.65031 0.21326
118.65866 0.21348
118.68800 0.21409
118.69632 0.21429
118.72558 0.21482
118.73387 0.21501
118.76306 0.21547
118.77131 0.21563
118.80045 0.21602
118.80869 0.21616
118.83778 0.21648
118.84597 0.21660
118.87502 0.21684
118.88320 0.21694
118.91222 0.21711
118.92040 0.21719
118.94939 0.21729
118.95753 0.21734
118.98652 0.21736
118.99464 0.21740
119.02363 0.21735
119.03173 0.21737
119.06072 0.21723
119.06882 0.21723
119.09782 0.21703
119.10591 0.21700
119.13493 0.21672
119.14302 0.21668
119.17207 0.21632
119.18014 0.21626
119.20923 0.21583
119.21731 0.21574
119.24645 0.21524
119.25452 0.21514
119.28372 0.21456
119.29180 0.21444
119.32106 0.21379
119.32914 0.21364
119.35849 0.21292
119.36656 0.21275
119.39599 0.21196
119.40408 0.21177
119.43361 0.21091
119.44170 0.21070
119.47134 0.20977
119.47946 0.20955
119.50921 0.20854
119.51734 0.20830
119.54722 0.20723
119.55536 0.20697
119.58538 0.20582
119.59355 0.20555
119.62372 0.20434
119.63191 0.20404
119.66224 0.20277
119.67046 0.20246
119.70097 0.20112
119.70922 0.20079
119.73992 0.19939
119.74819 0.19905
119.77909 0.19759
119.78741 0.19723
119.81853 0.19570
119.82689 0.19533
119.85824 0.19375
119.86664 0.19336
119.89823 0.19173
119.90669 0.19132
119.93856 0.18963
119.94705 0.18922
119.97920 0.18748
119.98776 0.18705
120.02021 0.18526
120.02884 0.18482
120.06160 0.18298
120.07030 0.18253
120.10340 0.18064
120.11214 0.18018
120.14561 0.17825
120.15445 0.17778
120.18830 0.17581
120.19723 0.17533
120.23149 0.17333
120.24050 0.17284
120.27519 0.17080
120.28430 0.17030
120.31945 0.16823
120.32866 0.16774
120.36429 0.16564
120.37361 0.16513
120.40977 0.16301
120.41920 0.16250
120.45591 0.16036
120.46546 0.15984
120.50274 0.15769
120.51242 0.15717
120.55031 0.15500
120.56014 0.15448
120.59869 0.15231
120.60866 0.15179
120.64789 0.14962
120.65801 0.14910
120.69796 0.14693
120.70825 0.14641
120.74895 0.14425
120.75941 0.14374
120.80092 0.14158
120.81158 0.14108
120.85392 0.13894
120.86475 0.13845
120.90797 0.13634
120.91901 0.13585
120.96314 0.13378
120.97438 0.13330
121.01946 0.13126
121.03092 0.13080
121.07698 0.12881
121.08866 0.12836
121.13573 0.12642
121.14765 0.12598
121.19576 0.12411
121.20791 0.12369
121.25707 0.12188
121.26945 0.12148
121.31969 0.11975
121.33232 0.11937
121.38363 0.11773
121.39648 0.11737
121.44887 0.11583
121.46197 0.11550
121.51540 0.11405
121.52874 0.11374
121.58320 0.11241
121.59672 0.11213
121.65215 0.11092
121.66591 0.11067
121.72226 0.10958
121.73619 0.10937
121.79338 0.10841
121.80746 0.10823
121.86541 0.10742
121.87964 0.10727
121.93823 0.10660
121.95259 0.10649
122.01170 0.10597
122.02611 0.10590
122.08561 0.10553
122.10008 0.10550
122.15983 0.10529
122.17432 0.10530
122.23417 0.10524
122.24861 0.10529
122.30842 0.10539
122.32285 0.10547
122.38246 0.10574
122.39677 0.10585
122.45605 0.10627
122.47023 0.10642
122.52904 0.10699
122.54307 0.10718
122.60128 0.10790
122.61513 0.10812
122.67264 0.10897
122.68628 0.10923
122.74299 0.11022
122.75642 0.11051
122.81226 0.11162
122.82542 0.11194
122.88031 0.11318
122.89324 0.11352
122.94714 0.11487
122.95981 0.11524
123.01268 0.11669
123.02510 0.11708
123.07693 0.11863
123.08905 0.11904
123.13982 0.12068
123.15169 0.12111
123.20141 0.12282
123.21301 0.12327
123.26169 0.12505
123.27303 0.12552
123.32067 0.12736
123.33175 0.12784
123.37840 0.12974
123.38924 0.13023
123.43491 0.13218
123.44552 0.13268
123.49025 0.13467
123.50061 0.13518
123.54444 0.13719
123.55460 0.13771
123.59755 0.13976
123.60748 0.14027
123.64960 0.14234
123.65935 0.14286
123.70068 0.14494
123.71021 0.14547
123.75078 0.14756
123.76015 0.14808
123.80000 0.15018
123.80920 0.15070
123.84837 0.15279
123.85740 0.15332
123.89592 0.15540
123.90479 0.15592
123.94269 0.15799
123.95142 0.15851
123.98876 0.16056
123.99735 0.16108
124.03413 0.16311
124.04258 0.16362
124.07885 0.16563
124.08718 0.16613
124.12296 0.16811
124.13118 0.16861
124.16650 0.17056
124.17460 0.17105
124.20949 0.17296
124.21750 0.17344
124.25198 0.17532
124.25987 0.17579
124.29398 0.17762
124.30177 0.17808
124.33552 0.17987
124.34323 0.18032
124.37663 0.18207
124.38428 0.18250
124.41736 0.18420
124.42491 0.18462
124.45770 0.18627
124.46517 0.18668
124.49768 0.18827
124.50508 0.18867
124.53733 0.19021
124.54468 0.19059
124.57669 0.19207
124.58396 0.19244
124.61574 0.19386
124.62295 0.19421
124.65452 0.19557
124.66167 0.19591
124.69304 0.19721
124.70014 0.19753
124.73133 0.19876
124.73838 0.19907
124.76939 0.20023
124.77639 0.20052
124.80725 0.20162
124.81421 0.20190
124.84492 0.20292
124.85184 0.20318
124.88242 0.20414
124.88930 0.20438
124.91976 0.20527
124.92658 0.20549
124.95693 0.20630
124.96374 0.20651
124.99398 0.20725
125.00076 0.20744
125.03091 0.20811
125.03765 0.20828
125.06772 0.20887
125.07443 0.20903
125.10443 0.20954
125.11112 0.20968
125.14107 0.21011
125.14773 0.21023
125.17762 0.21059
125.18425 0.21070
125.21411 0.21097
125.22071 0.21106
125.25053 0.21126
125.25712 0.21133
125.28692 0.21145
125.29351 0.21151
125.32329 0.21155
125.32984 0.21158
125.35962 0.21154
125.36616 0.21156
125.39595 0.21145
125.40247 0.21145
125.43226 0.21125
125.43878 0.21123
125.46860 0.21095
125.47512 0.21092
125.50496 0.21056
125.51145 0.21051
125.54134 0.21008
125.54783 0.21001
125.57777 0.20950
125.58426 0.20941
125.61425 0.20882
125.62074 0.20872
125.65080 0.20805
125.65728 0.20793
125.68742 0.20718
125.69390 0.20704
125.72412 0.20622
125.73062 0.20607
125.76094 0.20517
125.76743 0.20500
125.79786 0.20403
125.80436 0.20384
125.83491 0.20279
125.84141 0.20259
125.87209 0.20147
125.87861 0.20126
125.90944 0.20006
125.91595 0.19983
125.94693 0.19856
125.95347 0.19832
125.98462 0.19698
125.99118 0.19673
126.02250 0.19532
126.02909 0.19505
126.06061 0.19357
126.06719 0.19329
126.09892 0.19175
126.10555 0.19145
126.13750 0.18984
126.14415 0.18954
126.17635 0.18786
126.18302 0.18755
126.21547 0.18581
126.22218 0.18548
126.25491 0.18369
126.26167 0.18335
126.29468 0.18150
126.30146 0.18115
126.33479 0.17925
126.34164 0.17888
126.37531 0.17693
126.38219 0.17656
126.41621 0.17455
126.42314 0.17417
126.45754 0.17212
126.46454 0.17173
126.49934 0.16963
126.50640 0.16924
126.54164 0.16710
126.54876 0.16670
126.58445 0.16451
126.59165 0.16411
126.62784 0.16189
126.63511 0.16148
126.67182 0.15923
126.67918 0.15881
126.71644 0.15653
126.72390 0.15611
126.76174 0.15381
126.76928 0.15339
126.80776 0.15106
126.81541 0.15064
126.85455 0.14830
126.86232 0.14787
126.90217 0.14552
126.91005 0.14509
126.95065 0.14274
126.95864 0.14231
127.00005 0.13995
127.00819 0.13952
127.05043 0.13717
127.05872 0.13675
127.10186 0.13440
127.11031 0.13398
127.15439 0.13166
127.16299 0.13124
127.20807 0.12894
127.21683 0.12853
127.26296 0.12626
127.27190 0.12585
127.31912 0.12362
127.32825 0.12322
127.37662 0.12103
127.38593 0.12065
127.43550 0.11851
127.44503 0.11814
127.49583 0.11607
127.50557 0.11571
127.55764 0.11371
127.56758 0.11337
127.62095 0.11144
127.63112 0.11112
127.68583 0.10928
127.69621 0.10898
127.75224 0.10724
127.76285 0.10696
127.82020 0.10533
127.83099 0.10507
127.88965 0.10356
127.90066 0.10332
127.96057 0.10194
127.97180 0.10173
128.03290 0.10049
128.04431 0.10030
128.10651 0.09921
128.11806 0.09905
128.18126 0.09812
128.19295 0.09799
128.25702 0.09721
128.26884 0.09711
128.33363 0.09651
128.34549 0.09644
128.41082 0.09601
128.42278 0.09598
128.48846 0.09572
128.50041 0.09572
128.56626 0.09565
128.57819 0.09568
128.64400 0.09578
128.65586 0.09585
128.72144 0.09613
128.73325 0.09622
128.79841 0.09668
128.81005 0.09681
128.87460 0.09744
128.88611 0.09759
128.94990 0.09839
128.96123 0.09858
129.02412 0.09953
129.03525 0.09974
129.09710 0.10085
129.10800 0.10108
129.16872 0.10233
129.17940 0.10259
129.23892 0.10397
129.24935 0.10426
129.30762 0.10576
129.31781 0.10607
129.37479 0.10769
129.38474 0.10801
129.44041 0.10973
129.45012 0.11007
129.50449 0.11189
129.51392 0.11224
129.56700 0.11414
129.57621 0.11451
129.62801 0.11649
129.63695 0.11687
129.68752 0.11891
129.69627 0.11930
129.74564 0.12140
129.75415 0.12180
129.80237 0.12394
129.81066 0.12435
129.85777 0.12653
129.86589 0.12695
129.91194 0.12916
129.91985 0.12958
129.96489 0.13183
129.97263 0.13225
130.01671 0.13451
130.02426 0.13493
130.06743 0.13721
130.07482 0.13763
130.11714 0.13991
130.12438 0.14034
130.16589 0.14262
130.17298 0.14304
130.21373 0.14532
130.22069 0.14574
130.26071 0.14800
130.26754 0.14842
130.30688 0.15068
130.31357 0.15109
130.35228 0.15332
130.35888 0.15373
130.39699 0.15594
130.40346 0.15635
130.44101 0.15853
130.44737 0.15892
130.48439 0.16107
130.49067 0.16147
130.52718 0.16358
130.53337 0.16397
130.56942 0.16604
130.57553 0.16642
130.61115 0.16845
130.61716 0.16882
130.65236 0.17081
130.65831 0.17117
130.69313 0.17311
130.69901 0.17347
130.73347 0.17536
130.73928 0.17570
130.77340 0.17754
130.77913 0.17787
130.81294 0.17965
130.81862 0.17997
130.85213 0.18169
130.85776 0.18201
130.89100 0.18367
130.89656 0.18397
130.92954 0.18557
130.93506 0.18586
130.96780 0.18739
130.97328 0.18767
131.00579 0.18914
131.01122 0.18941
131.04353 0.19081
131.04891 0.19107
131.08103 0.19240
131.08636 0.19264
131.11830 0.19390
131.12360 0.19413
131.15537 0.19532
131.16063 0.19553
131.19225 0.19665
131.19748 0.19685
131.22897 0.19789
131.23415 0.19808
131.26551 0.19904
131.27068 0.19922
131.30192 0.20010
131.30705 0.20027
131.33819 0.20107
131.34328 0.20122
131.37432 0.20195
131.37939 0.20209
131.41036 0.20273
131.41541 0.20286
131.44630 0.20342
131.45132 0.20353
131.48214 0.20401
131.48714 0.20411
131.51792 0.20451
131.52290 0.20460
131.55363 0.20491
131.55859 0.20498
131.58929 0.20522
131.59421 0.20527
131.62489 0.20542
131.62982 0.20547
131.66048 0.20553
131.66537 0.20556
131.69602 0.20555
131.70091 0.20556
131.73156 0.20546
131.73643 0.20546
131.76710 0.20527
131.77196 0.20526
131.80264 0.20499
131.80749 0.20496
131.83821 0.20461
131.84305 0.20457
131.87380 0.20413
131.87862 0.20408
131.90942 0.20356
131.91424 0.20350
131.94510 0.20289
131.94992 0.20281
131.98085 0.20212
131.98565 0.20204
132.01665 0.20126
132.02145 0.20116
132.05255 0.20031
132.05734 0.20020
132.08853 0.19926
132.09332 0.19914
132.12463 0.19812
132.12943 0.19798
132.16085 0.19689
132.16563 0.19674
132.19719 0.19556
132.20198 0.19541
132.23368 0.19415
132.23848 0.19398
132.27034 0.19265
132.27513 0.19247
132.30716 0.19107
132.31197 0.19088
132.34418 0.18940
132.34899 0.18919
132.38140 0.18764
132.38622 0.18743
132.41883 0.18581
132.42367 0.18559
132.45652 0.18389
132.46137 0.18366
132.49446 0.18190
132.49934 0.18166
132.53270 0.17984
132.53756 0.17959
132.57120 0.17770
132.57610 0.17744
132.61005 0.17549
132.61497 0.17523
132.64924 0.17321
132.65419 0.17294
132.68880 0.17087
132.69378 0.17059
132.72875 0.16846
132.73377 0.16818
132.76915 0.16600
132.77419 0.16571
132.80998 0.16348
132.81507 0.16318
132.85133 0.16090
132.85644 0.16060
132.89317 0.15828
132.89836 0.15797
132.93560 0.15561
132.94081 0.15530
132.97861 0.15290
132.98389 0.15259
133.02228 0.15015
133.02761 0.14984
133.06663 0.14737
133.07204 0.14706
133.11173 0.14457
133.11720 0.14425
133.15761 0.14173
133.16315 0.14141
133.20432 0.13888
133.20996 0.13856
133.25195 0.13602
133.25767 0.13570
133.30054 0.13316
133.30635 0.13284
133.35015 0.13029
133.35606 0.12997
133.40086 0.12743
133.40687 0.12712
133.45271 0.12459
133.45885 0.12427
133.50582 0.12176
133.51209 0.12146
133.56025 0.11897
133.56665 0.11867
133.61608 0.11622
133.62260 0.11592
133.67336 0.11352
133.68006 0.11323
133.73222 0.11087
133.73903 0.11060
133.79265 0.10830
133.79964 0.10803
133.85478 0.10581
133.86196 0.10555
133.91868 0.10341
133.92602 0.10316
133.98435 0.10111
133.99185 0.10088
134.05185 0.09893
134.05952 0.09871
134.12117 0.09688
134.12905 0.09668
134.19236 0.09498
134.20041 0.09479
134.26534 0.09323
134.27352 0.09306
134.34002 0.09165
134.34838 0.09151
134.41633 0.09025
134.42480 0.09013
134.49410 0.08905
134.50271 0.08895
134.57319 0.08805
134.58191 0.08797
134.65337 0.08727
134.66216 0.08721
134.73439 0.08670
134.74322 0.08667
134.81597 0.08636
134.82478 0.08636
134.89778 0.08625
134.90660 0.08627
134.97959 0.08637
134.98837 0.08642
135.06107 0.08672
135.06975 0.08679
135.14192 0.08729
135.15049 0.08738
135.22187 0.08808
135.23029 0.08820
135.30067 0.08908
135.30895 0.08922
135.37814 0.09029
135.38622 0.09044
135.45407 0.09168
135.46195 0.09185
135.52835 0.09325
135.53606 0.09344
135.60090 0.09499
135.60838 0.09519
135.67162 0.09687
135.67890 0.09710
135.74051 0.09890
135.74757 0.09914
135.80754 0.10105
135.81439 0.10130
135.87274 0.10331
135.87941 0.10357
135.93617 0.10568
135.94260 0.10594
135.99781 0.10813
136.00409 0.10840
136.05781 0.11066
136.06388 0.11094
136.11617 0.11325
136.12206 0.11354
136.17299 0.11590
136.17872 0.11619
136.22835 0.11859
136.23393 0.11888
136.28232 0.12131
136.28775 0.12161
136.33499 0.12407
136.34028 0.12436
136.38642 0.12684
136.39158 0.12714
136.43669 0.12962
136.44173 0.12992
136.48586 0.13240
136.49078 0.13270
136.53402 0.13518
136.53881 0.13548
136.58119 0.13796
136.58589 0.13825
136.62748 0.14071
136.63209 0.14101
136.67293 0.14345
136.67745 0.14374
136.71759 0.14615
136.72202 0.14644
136.76151 0.14883
136.76587 0.14911
136.80474 0.15147
136.80901 0.15175
136.84731 0.15407
136.85153 0.15434
136.88930 0.15663
136.89342 0.15690
136.93069 0.15913
136.93478 0.15940
136.97158 0.16159
136.97561 0.16184
137.01197 0.16399
137.01594 0.16424
137.05190 0.16633
137.05580 0.16657
137.09139 0.16861
137.09525 0.16884
137.13047 0.17082
137.13429 0.17105
137.16918 0.17297
137.17296 0.17319
137.20754 0.17505
137.21126 0.17526
137.24555 0.17705
137.24925 0.17725
137.28328 0.17898
137.28692 0.17918
137.32070 0.18083
137.32432 0.18102
137.35786 0.18260
137.36144 0.18279
137.39477 0.18429
137.39831 0.18447
137.43143 0.18590
137.43495 0.18607
137.46789 0.18743
137.47139 0.18758
137.50416 0.18887
137.50761 0.18901
137.54023 0.19022
137.54366 0.19036
137.57613 0.19148
137.57953 0.19161
137.61187 0.19265
137.61524 0.19277
137.64746 0.19373
137.65083 0.19384
137.68295 0.19472
137.68627 0.19482
137.71829 0.19561
137.72159 0.19571
137.75352 0.19641
137.75680 0.19650
137.78866 0.19712
137.79194 0.19719
137.82373 0.19773
137.82696 0.19779
137.85870 0.19824
137.86193 0.19830
137.89362 0.19866
137.89682 0.19870
137.92848 0.19897
137.93167 0.19901
137.96330 0.19919
137.96646 0.19922
137.99807 0.19932
138.00124 0.19934
138.03285 0.19934
138.03598 0.19935
138.06758 0.19927
138.07071 0.19927
138.10233 0.19909
138.10542 0.19909
138.13706 0.19882
138.14017 0.19881
138.17183 0.19846
138.17490 0.19843
138.20661 0.19799
138.20968 0.19796
138.24143 0.19743
138.24449 0.19739
138.27630 0.19677
138.27934 0.19672
138.31122 0.19602
138.31425 0.19596
138.34621 0.19516
138.34922 0.19510
138.38127 0.19422
138.38427 0.19414
138.41642 0.19318
138.41941 0.19310
138.45167 0.19204
138.45464 0.19196
138.48702 0.19082
138.49000 0.19072
138.52251 0.18950
138.52549 0.18940
138.55814 0.18810
138.56110 0.18799
138.59391 0.18660
138.59687 0.18649
138.62985 0.18502
138.63281 0.18490
138.66598 0.18335
138.66893 0.18323
138.70229 0.18160
138.70524 0.18147
138.73883 0.17976
138.74177 0.17963
138.77559 0.17785
138.77852 0.17770
138.81259 0.17585
138.81554 0.17571
138.84987 0.17378
138.85280 0.17363
138.88743 0.17164
138.89038 0.17148
138.92530 0.16942
138.92825 0.16926
138.96351 0.16713
138.96646 0.16697
139.00207 0.16478
139.00504 0.16461
139.04104 0.16236
139.04399 0.16218
139.08039 0.15987
139.08337 0.15970
139.12021 0.15733
139.12320 0.15715
139.16051 0.15474
139.16352 0.15455
139.20133 0.15209
139.20436 0.15190
139.24271 0.14939
139.24573 0.14920
139.28466 0.14665
139.28773 0.14646
139.32727 0.14386
139.33033 0.14367
139.37054 0.14104
139.37367 0.14085
139.41459 0.13818
139.41773 0.13799
139.45941 0.13530
139.46258 0.13511
139.50510 0.13240
139.50830 0.13221
139.55169 0.12948
139.55495 0.12929
139.59929 0.12654
139.60258 0.12635
139.64794 0.12360
139.65128 0.12342
139.69773 0.12066
139.70112 0.12048
139.74874 0.11774
139.75219 0.11755
139.80107 0.11482
139.80458 0.11464
139.85481 0.11194
139.85840 0.11176
139.91005 0.10908
139.91372 0.10890
139.96689 0.10626
139.97062 0.10610
140.02543 0.10351
140.02924 0.10334
140.08577 0.10081
140.08966 0.10065
140.14800 0.09819
140.15200 0.09804
140.21225 0.09566
140.21633 0.09551
140.27854 0.09322
140.28274 0.09309
140.34702 0.09091
140.35131 0.09078
140.41766 0.08872
140.42204 0.08860
140.49052 0.08667
140.49501 0.08656
140.56557 0.08479
140.57017 0.08469
140.64280 0.08308
140.64748 0.08299
140.72205 0.08155
140.72684 0.08148
140.80324 0.08023
140.80805 0.08017
140.88608 0.07913
140.89099 0.07908
140.97040 0.07825
140.97532 0.07822
141.05583 0.07761
141.06078 0.07759
141.14205 0.07721
141.14698 0.07721
141.22865 0.07707
141.23358 0.07707
141.31529 0.07717
141.32019 0.07719
141.40154 0.07752
141.40636 0.07755
141.48702 0.07811
141.49174 0.07816
141.57135 0.07894
141.57596 0.07900
141.65424 0.07999
141.65874 0.08007
141.73544 0.08126
141.73982 0.08135
141.81474 0.08274
141.81899 0.08283
141.89199 0.08440
141.89611 0.08450
141.96709 0.08623
141.97106 0.08634
142.03998 0.08822
142.04379 0.08834
142.11062 0.09035
142.11432 0.09047
142.17908 0.09261
142.18265 0.09274
142.24539 0.09498
142.24880 0.09512
142.30959 0.09745
142.31290 0.09759
142.37180 0.10001
142.37496 0.10015
142.43208 0.10263
142.43516 0.10278
142.49056 0.10533
142.49351 0.10548
142.54730 0.10807
142.55018 0.10822
142.60246 0.11085
142.60521 0.11100
142.65605 0.11366
142.65874 0.11381
142.70826 0.11649
142.71086 0.11664
142.75912 0.11934
142.76164 0.11949
142.80875 0.12219
142.81122 0.12234
142.85724 0.12504
142.85962 0.12519
142.90463 0.12789
142.90696 0.12804
142.95103 0.13072
142.95330 0.13086
142.99649 0.13353
142.99870 0.13367
143.04108 0.13631
143.04326 0.13646
143.08488 0.13907
143.08699 0.13921
143.12791 0.14179
143.12997 0.14193
143.17023 0.14447
143.17227 0.14461
143.21191 0.14711
143.21388 0.14724
143.25296 0.14970
143.25491 0.14983
143.29346 0.15224
143.29539 0.15237
143.33344 0.15473
143.33531 0.15485
143.37291 0.15715
143.37477 0.15727
143.41193 0.15952
143.41374 0.15964
143.45050 0.16182
143.45230 0.16194
143.48869 0.16406
143.49046 0.16417
143.52651 0.16623
143.52825 0.16633
143.56397 0.16832
143.56568 0.16843
143.60111 0.17035
143.60280 0.17045
143.63795 0.17230
143.63960 0.17239
143.67449 0.17416
143.67614 0.17425
143.71078 0.17595
143.71240 0.17604
143.74683 0.17766
143.74843 0.17774
143.78265 0.17928
143.78424 0.17936
143.81827 0.18082
143.81983 0.18089
143.85368 0.18227
143.85522 0.18234
143.88892 0.18364
143.89043 0.18370
143.92398 0.18491
143.92548 0.18497
143.95889 0.18609
143.96038 0.18615
143.99367 0.18718
143.99513 0.18724
144.02831 0.18819
144.02975 0.18823
144.06283 0.18909
144.06427 0.18913
144.09726 0.18990
144.09867 0.18994
144.13159 0.19062
144.13299 0.19065
144.16584 0.19124
144.16722 0.19127
144.20001 0.19177
144.20136 0.19179
144.23411 0.19219
144.23547 0.19221
144.26818 0.19252
144.26949 0.19254
144.30218 0.19276
144.30348 0.19277
144.33615 0.19289
144.33745 0.19290
144.37011 0.19293
144.37138 0.19293
144.40404 0.19287
144.40529 0.19287
144.43796 0.19271
144.43919 0.19270
144.47188 0.19245
144.47312 0.19244
144.50583 0.19210
144.50703 0.19209
144.53979 0.19164
144.54098 0.19163
144.57378 0.19109
144.57496 0.19108
144.60782 0.19045
144.60897 0.19043
144.64190 0.18971
144.64304 0.18968
144.67605 0.18887
144.67716 0.18884
144.71026 0.18794
144.71136 0.18791
144.74455 0.18691
144.74565 0.18688
144.77895 0.18579
144.78002 0.18576
144.81344 0.18458
144.81449 0.18454
144.84805 0.18327
144.84907 0.18324
144.88277 0.18188
144.88380 0.18184
144.91766 0.18040
144.91866 0.18036
144.95269 0.17882
144.95367 0.17878
144.98789 0.17717
144.98886 0.17713
145.02327 0.17542
145.02423 0.17538
145.05886 0.17360
145.05979 0.17355
145.09466 0.17169
145.09557 0.17165
145.13069 0.16971
145.13158 0.16966
145.16697 0.16764
145.16786 0.16759
145.20353 0.16550
145.20440 0.16545
145.24040 0.16329
145.24124 0.16324
145.27757 0.16100
145.27840 0.16095
145.31508 0.15864
145.31591 0.15860
145.35299 0.15622
145.35378 0.15617
145.39128 0.15374
145.39206 0.15369
145.42999 0.15119
145.43075 0.15114
145.46917 0.14858
145.46992 0.14854
145.50885 0.14592
145.50957 0.14588
145.54906 0.14321
145.54979 0.14316
145.58988 0.14045
145.59057 0.14040
145.63130 0.13764
145.63199 0.13759
145.67342 0.13479
145.67408 0.13475
145.71625 0.13191
145.71690 0.13187
145.75989 0.12899
145.76052 0.12895
145.80437 0.12605
145.80499 0.12601
145.84979 0.12308
145.85038 0.12304
145.89618 0.12010
145.89676 0.12006
145.94368 0.11710
145.94425 0.11707
145.99234 0.11410
145.99289 0.11407
146.04226 0.11110
146.04281 0.11107
146.09357 0.10811
146.09408 0.10809
146.14634 0.10514
146.14685 0.10511
146.20072 0.10220
146.20120 0.10217
146.25681 0.09928
146.25727 0.09926
146.31475 0.09642
146.31521 0.09640
146.37468 0.09361
146.37511 0.09359
146.43672 0.09087
146.43713 0.09085
146.50102 0.08821
146.50142 0.08819
146.56770 0.08564
146.56809 0.08563
146.63691 0.08319
146.63723 0.08318
146.70867 0.08085
146.70897 0.08085
146.78311 0.07867
146.78344 0.07866
146.86030 0.07664
146.86056 0.07663
146.94014 0.07478
146.94038 0.07478
147.02261 0.07312
147.02280 0.07312
147.10752 0.07167
147.10771 0.07167
147.19473 0.07045
147.19487 0.07045
147.28385 0.06947
147.28395 0.06947
147.37453 0.06875
147.37459 0.06875
147.46632 0.06829
147.55869 0.06810
147.55872 0.06810
147.65111 0.06818
147.74309 0.06852
147.83409 0.06914
147.92368 0.07001
148.01134 0.07113
148.09690 0.07247
148.18001 0.07403
148.26055 0.07578
148.33842 0.07772
148.41351 0.07981
148.48598 0.08205
148.55578 0.08442
148.62305 0.08690
148.68792 0.08947
148.75044 0.09213
148.81081 0.09485
148.86914 0.09763
148.92559 0.10045
148.98025 0.10331
149.03327 0.10620
149.08478 0.10910
149.13489 0.11201
149.18367 0.11492
149.23127 0.11783
149.27773 0.12072
149.32317 0.12359
149.36763 0.12644
149.41123 0.12927
149.45401 0.13205
149.49600 0.13480
149.53731 0.13751
149.57798 0.14017
149.61801 0.14278
149.65749 0.14534
149.69645 0.14785
149.73493 0.15029
149.77295 0.15267
149.81056 0.15498
149.84777 0.15723
149.88462 0.15941
149.92112 0.16151
149.95731 0.16354
149.99322 0.16550
150.02884 0.16737
150.06421 0.16917
150.09936 0.17088
150.13427 0.17251
150.16898 0.17405
150.20351 0.17551
150.23786 0.17688
150.27206 0.17816
150.30610 0.17935
150.34002 0.18045
150.37380 0.18146
150.40747 0.18237
150.44104 0.18319
150.47451 0.18391
150.50792 0.18454
150.54124 0.18507
150.57450 0.18551
150.60771 0.18586
150.64088 0.18610
150.67401 0.18625
150.70712 0.18630
150.74020 0.18625
150.77327 0.18610
150.80635 0.18587
150.83943 0.18553
150.87254 0.18509
150.90566 0.18456
150.93882 0.18393
150.97203 0.18321
151.00529 0.18239
151.03862 0.18148
151.07200 0.18047
151.10549 0.17937
151.13906 0.17818
151.17274 0.17690
151.20653 0.17553
151.24044 0.17407
151.27452 0.17252
151.30873 0.17088
151.34311 0.16917
151.37768 0.16736
151.41246 0.16548
151.44745 0.16351
151.48267 0.16147
151.51815 0.15935
151.55389 0.15715
151.58994 0.15489
151.62631 0.15255
151.66304 0.15014
151.70014 0.14767
151.73762 0.14513
151.77556 0.14254
151.81397 0.13988
151.85289 0.13717
151.89236 0.13442
151.93245 0.13161
151.97318 0.12875
152.01462 0.12586
152.05684 0.12293
152.09987 0.11997
152.14382 0.11698
152.18876 0.11396
152.23478 0.11093
152.28197 0.10789
152.33043 0.10484
152.38027 0.10179
152.43166 0.09875
152.48472 0.09573
152.53956 0.09274
152.59636 0.08978
152.65533 0.08687
152.71660 0.08401
152.78038 0.08123
152.84684 0.07853
152.91621 0.07593
152.98860 0.07345
153.06419 0.07110
153.14314 0.06891
153.22539 0.06690
153.31106 0.06508
153.39995 0.06347
153.49186 0.06211
153.58648 0.06099
153.68332 0.06016
153.78181 0.05960
153.88126 0.05934
153.98097 0.05938
154.08016 0.05971
154.17811 0.06033
154.27422 0.06124
154.36789 0.06241
154.45871 0.06382
154.54644 0.06546
154.63086 0.06731
154.71188 0.06935
154.78955 0.07155
154.86392 0.07389
154.93515 0.07636
155.00335 0.07894
155.06872 0.08161
155.13145 0.08436
155.19175 0.08717
155.24979 0.09003
155.30574 0.09292
155.35977 0.09585
155.41201 0.09880
155.46266 0.10175
155.51181 0.10471
155.55959 0.10767
155.60613 0.11061
155.65153 0.11354
155.69585 0.11644
155.73922 0.11932
155.78171 0.12217
155.82333 0.12498
155.86423 0.12774
155.90444 0.13047
155.94399 0.13314
155.98293 0.13576
156.02134 0.13833
156.05923 0.14084
156.09664 0.14328
156.13362 0.14567
156.17019 0.14798
156.20638 0.15023
156.24221 0.15241
156.27773 0.15452
156.31295 0.15655
156.34787 0.15850
156.38255 0.16038
156.41697 0.16218
156.45117 0.16389
156.48516 0.16552
156.51896 0.16706
156.55259 0.16852
156.58604 0.16989
156.61935 0.17118
156.65250 0.17237
156.68554 0.17348
156.71845 0.17449
156.75125 0.17541
156.78396 0.17624
156.81657 0.17697
156.84912 0.17761
156.88160 0.17815
156.91401 0.17860
156.94636 0.17896
156.97868 0.17922
157.01095 0.17938
157.04320 0.17944
157.07544 0.17941
157.10766 0.17929
157.13988 0.17907
157.17209 0.17875
157.20432 0.17834
157.23658 0.17783
157.26886 0.17722
157.30120 0.17653
157.33355 0.17573
157.36598 0.17485
157.39847 0.17387
157.43102 0.17280
157.46367 0.17164
157.49639 0.17039
157.52923 0.16905
157.56220 0.16762
157.59528 0.16610
157.62850 0.16450
157.66186 0.16281
157.69539 0.16104
157.72911 0.15919
157.76303 0.15726
157.79716 0.15524
157.83152 0.15316
157.86612 0.15099
157.90100 0.14876
157.93616 0.14645
157.97168 0.14407
158.00751 0.14163
158.04372 0.13912
158.08035 0.13655
158.11739 0.13392
158.15493 0.13123
158.19298 0.12849
158.23159 0.12569
158.27083 0.12285
158.31072 0.11996
158.35135 0.11704
158.39279 0.11407
158.43508 0.11107
158.47833 0.10805
158.52261 0.10500
158.56807 0.10193
158.61476 0.09885
158.66286 0.09576
158.71246 0.09268
158.76377 0.08960
158.81693 0.08654
158.87215 0.08350
158.92962 0.08049
158.98954 0.07754
159.05221 0.07464
159.11788 0.07181
159.18681 0.06907
159.25922 0.06645
159.33550 0.06394
159.41579 0.06158
159.50027 0.05939
159.58908 0.05739
159.68224 0.05561
159.77946 0.05407
159.88057 0.05281
159.98493 0.05183
160.09175 0.05116
160.20021 0.05082
160.30920 0.05080
160.41765 0.05112
160.52450 0.05175
160.62883 0.05269
160.72998 0.05392
160.82722 0.05542
160.92032 0.05716
161.00911 0.05912
161.09360 0.06126
161.17383 0.06357
161.25003 0.06602
161.32238 0.06860
161.39124 0.07128
161.45679 0.07404
161.51935 0.07687
161.57917 0.07976
161.63650 0.08269
161.69156 0.08565
161.74456 0.08863
161.79570 0.09162
161.84514 0.09462
161.89303 0.09762
161.93953 0.10060
161.98476 0.10357
162.02883 0.10652
162.07184 0.10944
162.11385 0.11233
162.15501 0.11518
162.19537 0.11799
162.23500 0.12076
162.27390 0.12348
162.31223 0.12615
162.34995 0.12877
162.38713 0.13133
162.42384 0.13383
162.46010 0.13627
162.49592 0.13864
162.53139 0.14095
162.56648 0.14319
162.60122 0.14535
162.63567 0.14745
162.66984 0.14947
162.70374 0.15141
162.73738 0.15328
162.77082 0.15507
162.80403 0.15677
162.83704 0.15839
162.86988 0.15993
162.90255 0.16138
162.93506 0.16275
162.96742 0.16403
162.99966 0.16522
163.03177 0.16632
163.06377 0.16733
163.09567 0.16825
163.12750 0.16908
163.15923 0.16982
163.19088 0.17047
163.22246 0.17102
163.25398 0.17147
163.28548 0.17184
163.31690 0.17211
163.34830 0.17229
163.37967 0.17237
163.41101 0.17235
163.44236 0.17224
163.47369 0.17204
163.50502 0.17175
163.53636 0.17136
163.56771 0.17087
163.59909 0.17030
163.63050 0.16963
163.66194 0.16886
163.69343 0.16801
163.72497 0.16706
163.75659 0.16603
163.78827 0.16490
163.82003 0.16368
163.85188 0.16238
163.88382 0.16099
163.91589 0.15951
163.94806 0.15795
163.98038 0.15631
164.01284 0.15458
164.04545 0.15277
164.07824 0.15088
164.11122 0.14891
164.14441 0.14687
164.17781 0.14475
164.21146 0.14255
164.24536 0.14029
164.27957 0.13795
164.31406 0.13555
164.34891 0.13309
164.38410 0.13055
164.41971 0.12796
164.45573 0.12531
164.49225 0.12260
164.52928 0.11984
164.56684 0.11703
164.60503 0.11417
164.64392 0.11126
164.68351 0.10832
164.72392 0.10534
164.76525 0.10232
164.80754 0.09928
164.85091 0.09621
164.89551 0.09311
164.94145 0.09001
164.98885 0.08690
165.03791 0.08378
165.08883 0.08067
165.14185 0.07757
165.19711 0.07450
165.25497 0.07146
165.31573 0.06846
165.37972 0.06552
165.44731 0.06265
165.51887 0.05987
165.59488 0.05721
165.67569 0.05467
165.76179 0.05229
165.85333 0.05010
165.95071 0.04812
166.05385 0.04639
166.16249 0.04493
166.27606 0.04379
166.39360 0.04298
166.51382 0.04253
166.63515 0.04245
166.75602 0.04274
166.87464 0.04339
166.98983 0.04438
167.10031 0.04569
167.20549 0.04729
167.30495 0.04915
167.39860 0.05122
167.48662 0.05349
167.56923 0.05593
167.64689 0.05850
167.71997 0.06118
167.78885 0.06396
167.85402 0.06681
167.91576 0.06972
167.97452 0.07267
168.03056 0.07566
168.08422 0.07867
168.13571 0.08169
168.18523 0.08471
168.23304 0.08774
168.27929 0.09075
168.32414 0.09375
168.36772 0.09672
168.41018 0.09967
168.45157 0.10259
168.49205 0.10547
168.53168 0.10831
168.57051 0.11111
168.60865 0.11386
168.64614 0.11657
168.68304 0.11922
168.71938 0.12181
168.75521 0.12435
168.79062 0.12683
168.82558 0.12925
168.86018 0.13160
168.89439 0.13388
168.92828 0.13609
168.96187 0.13824
168.99515 0.14031
169.02819 0.14231
169.06099 0.14423
169.09355 0.14607
169.12591 0.14784
169.15807 0.14953
169.19004 0.15113
169.22187 0.15265
169.25352 0.15409
169.28504 0.15544
169.31643 0.15671
169.34769 0.15789
169.37885 0.15899
169.40989 0.15999
169.44085 0.16091
169.47172 0.16173
169.50252 0.16247
169.53323 0.16311
169.56390 0.16367
169.59451 0.16413
169.62507 0.16450
169.65560 0.16478
169.68607 0.16497
169.71654 0.16506
169.74697 0.16507
169.77738 0.16498
169.80779 0.16480
169.83821 0.16452
169.86861 0.16416
169.89902 0.16370
169.92947 0.16315
169.95993 0.16251
169.99041 0.16178
170.02094 0.16096
170.05150 0.16005
170.08212 0.15905
170.11280 0.15797
170.14355 0.15679
170.17437 0.15553
170.20525 0.15419
170.23625 0.15276
170.26735 0.15124
170.29856 0.14965
170.32987 0.14797
170.36134 0.14621
170.39295 0.14437
170.42473 0.14246
170.45668 0.14047
170.48882 0.13841
170.52116 0.13627
170.55372 0.13406
170.58654 0.13178
170.61962 0.12944
170.65300 0.12702
170.68670 0.12455
170.72074 0.12201
170.75513 0.11941
170.78996 0.11676
170.82524 0.11405
170.86101 0.11128
170.89732 0.10847
170.93423 0.10561
170.97178 0.10271
171.01008 0.09976
171.04919 0.09677
171.08918 0.09375
171.13015 0.09070
171.17225 0.08763
171.21557 0.08453
171.26030 0.08142
171.30657 0.07829
171.35462 0.07516
171.40465 0.07203
171.45696 0.06891
171.51183 0.06580
171.56962 0.06273
171.63073 0.05969
171.69567 0.05671
171.76504 0.05380
171.83929 0.05098
171.91923 0.04827
172.00551 0.04569
172.09878 0.04328
172.19976 0.04108
172.30875 0.03911
172.42592 0.03743
172.55079 0.03608
172.68237 0.03509
172.81874 0.03450
172.95742 0.03433
173.09578 0.03459
173.23103 0.03526
173.36093 0.03633
173.48383 0.03775
173.59878 0.03948
173.70555 0.04147
173.80432 0.04370
173.89560 0.04611
173.97999 0.04868
174.05828 0.05137
174.13106 0.05416
174.19904 0.05703
174.26280 0.05996
174.32285 0.06294
174.37965 0.06595
174.43363 0.06898
174.48513 0.07202
174.53442 0.07506
174.58179 0.07810
174.62743 0.08113
174.67156 0.08414
174.71430 0.08713
174.75583 0.09009
174.79629 0.09302
174.83577 0.09591
174.87438 0.09877
174.91218 0.10158
174.94927 0.10435
174.98570 0.10707
175.02155 0.10974
175.05683 0.11236
175.09163 0.11492
175.12600 0.11742
175.15990 0.11986
175.19347 0.12223
175.22667 0.12454
175.25954 0.12679
175.29211 0.12896
175.32441 0.13107
175.35647 0.13311
175.38827 0.13507
175.41987 0.13696
175.45127 0.13877
175.48247 0.14051
175.51351 0.14216
175.54438 0.14374
175.57511 0.14523
175.60569 0.14665
175.63615 0.14798
175.66649 0.14923
175.69674 0.15039
175.72687 0.15147
175.75691 0.15246
175.78686 0.15336
175.81675 0.15418
175.84656 0.15491
175.87631 0.15556
175.90600 0.15611
175.93565 0.15657
175.96524 0.15695
175.99481 0.15724
176.02433 0.15743
176.05382 0.15754
176.08330 0.15756
176.11276 0.15748
176.14220 0.15732
176.17163 0.15707
176.20106 0.15673
176.23051 0.15630
176.25996 0.15578
176.28942 0.15517
176.31891 0.15448
176.34842 0.15369
176.37796 0.15283
176.40755 0.15187
176.43717 0.15083
176.46684 0.14970
176.49659 0.14849
176.52639 0.14720
176.55626 0.14582
176.58622 0.14436
176.61625 0.14282
176.64640 0.14120
176.67664 0.13951
176.70703 0.13773
176.73752 0.13589
176.76815 0.13396
176.79894 0.13197
176.82990 0.12990
176.86106 0.12776
176.89241 0.12555
176.92396 0.12327
176.95575 0.12093
176.98781 0.11853
177.02017 0.11606
177.05282 0.11353
177.08581 0.11095
177.11921 0.10831
177.15298 0.10561
177.18724 0.10286
177.22198 0.10007
177.25727 0.09722
177.29319 0.09434
177.32979 0.09141
177.36713 0.08844
177.40535 0.08544
177.44453 0.08240
177.48478 0.07934
177.52626 0.07625
177.56912 0.07314
177.61355 0.07002
177.65980 0.06689
177.70813 0.06375
177.75885 0.06062
177.81240 0.05750
177.86917 0.05439
177.92976 0.05133
177.99476 0.04830
178.06509 0.04534
178.14163 0.04246
178.22558 0.03969
178.31797 0.03706
178.42036 0.03459
178.53392 0.03235
178.65968 0.03039
178.79817 0.02876
178.94846 0.02752
179.10814 0.02674
179.27320 0.02645
179.43846 0.02667
179.59887 0.02739
179.75007 0.02856
179.88960 0.03013
180.01662 0.03204
180.13115 0.03422
180.23450 0.03663
180.32768 0.03921
180.41226 0.04192
180.48932 0.04474
180.56008 0.04763
180.62545 0.05059
180.68627 0.05359
180.74324 0.05661
180.79691 0.05966
180.84768 0.06271
180.89604 0.06576
180.94230 0.06880
180.98671 0.07183
181.02949 0.07484
181.07084 0.07783
181.11098 0.08078
181.14999 0.08371
181.18800 0.08660
181.22519 0.08945
181.26155 0.09226
181.29724 0.09502
181.33228 0.09774
181.36676 0.10041
181.40068 0.10302
181.43417 0.10558
181.46721 0.10808
181.49987 0.11053
181.53217 0.11291
181.56414 0.11524
181.59580 0.11749
181.62718 0.11968
181.65832 0.12181
181.68922 0.12387
181.71991 0.12585
181.75039 0.12777
181.78068 0.12961
181.81082 0.13138
181.84078 0.13307
181.87059 0.13469
181.90027 0.13622
181.92983 0.13768
181.95927 0.13906
181.98861 0.14036
182.01783 0.14158
182.04697 0.14272
182.07600 0.14377
182.10499 0.14475
182.13389 0.14563
182.16271 0.14644
182.19148 0.14716
182.22020 0.14779
182.24886 0.14834
182.27747 0.14880
182.30605 0.14918
182.33460 0.14947
182.36309 0.14967
182.39158 0.14979
182.42004 0.14982
182.44848 0.14976
182.47690 0.14962
182.50532 0.14939
182.53372 0.14907
182.56214 0.14867
182.59055 0.14818
182.61896 0.14761
182.64738 0.14695
182.67583 0.14621
182.70429 0.14538
182.73279 0.14447
182.76131 0.14348
182.78985 0.14241
182.81845 0.14125
182.84708 0.14002
182.87578 0.13870
182.90452 0.13730
182.93335 0.13583
182.96222 0.13428
182.99117 0.13265
183.02023 0.13095
183.04937 0.12918
183.07861 0.12733
183.10797 0.12541
183.13745 0.12343
183.16708 0.12137
183.19685 0.11924
183.22677 0.11705
183.25690 0.11480
183.28722 0.11248
183.31773 0.11010
183.34848 0.10766
183.37949 0.10516
183.41081 0.10261
183.44241 0.10000
183.47440 0.09734
183.50672 0.09463
183.53951 0.09188
183.57276 0.08907
183.60653 0.08622
183.64094 0.08333
183.67597 0.08041
183.71176 0.07744
183.74847 0.07444
183.78608 0.07142
183.82484 0.06836
183.86490 0.06528
183.90643 0.06218
183.94968 0.05907
183.99494 0.05594
184.04264 0.05282
184.09317 0.04969
184.14711 0.04657
184.20517 0.04348
184.26826 0.04041
184.33750 0.03740
184.41451 0.03444
184.50097 0.03159
184.59929 0.02886
184.71243 0.02630
184.84354 0.02398
184.99548 0.02197
185.16998 0.02037
185.36556 0.01929
185.57518 0.01881
185.78770 0.01898
185.99065 0.01978
186.17508 0.02114
186.33710 0.02296
186.47721 0.02513
186.59784 0.02755
186.70247 0.03018
186.79385 0.03294
186.87468 0.03580
186.94713 0.03874
187.01275 0.04173
187.07279 0.04474
187.12834 0.04779
187.18017 0.05083
187.22891 0.05388
187.27508 0.05693
187.31900 0.05996
187.36109 0.06297
187.40152 0.06596
187.44062 0.06892
187.47852 0.07185
187.51535 0.07476
187.55126 0.07762
187.58635 0.08044
187.62073 0.08322
187.65448 0.08596
187.68765 0.08865
187.72031 0.09130
187.75250 0.09389
187.78428 0.09643
187.81568 0.09891
187.84674 0.10134
187.87749 0.10371
187.90794 0.10603
187.93815 0.10828
187.96809 0.11046
187.99783 0.11259
188.02739 0.11464
188.05672 0.11663
188.08591 0.11855
188.11495 0.12041
188.14380 0.12219
188.17255 0.12390
188.20116 0.12554
188.22966 0.12710
188.25805 0.12859
188.28634 0.13000
188.31453 0.13134
188.34262 0.13260
188.37066 0.13378
188.39861 0.13489
188.42648 0.13591
188.45430 0.13685
188.48206 0.13772
188.50977 0.13850
188.53741 0.13920
188.56502 0.13983
188.59257 0.14036
188.62010 0.14082
188.64759 0.14119
188.67504 0.14148
188.70246 0.14168
188.72987 0.14181
188.75724 0.14185
188.78458 0.14181
188.81193 0.14168
188.83925 0.14147
188.86657 0.14118
188.89388 0.14081
188.92117 0.14036
188.94848 0.13982
188.97579 0.13920
189.00308 0.13851
189.03039 0.13773
189.05771 0.13687
189.08505 0.13593
189.11240 0.13491
189.13977 0.13382
189.16720 0.13264
189.19462 0.13140
189.22207 0.13007
189.24957 0.12867
189.27709 0.12720
189.30470 0.12565
189.33232 0.12403
189.36000 0.12234
189.38776 0.12058
189.41559 0.11875
189.44348 0.11685
189.47146 0.11489
189.49954 0.11287
189.52772 0.11077
189.55600 0.10862
189.58444 0.10640
189.61298 0.10413
189.64166 0.10180
189.67053 0.09941
189.69956 0.09696
189.72883 0.09447
189.75827 0.09191
189.78799 0.08931
189.81800 0.08667
189.84829 0.08397
189.87893 0.08123
189.90997 0.07845
189.94145 0.07563
189.97341 0.07276
190.00595 0.06987
190.03915 0.06693
190.07310 0.06397
190.10790 0.06097
190.14372 0.05795
190.18077 0.05491
190.21916 0.05184
190.25929 0.04876
190.30146 0.04566
190.34606 0.04256
190.39386 0.03945
190.44549 0.03635
190.50208 0.03326
190.56510 0.03019
190.63670 0.02716
190.71978 0.02419
190.81883 0.02131
190.94022 0.01858
191.09320 0.01607
191.28954 0.01391
191.53904 0.01228
191.83822 0.01143
192.15582 0.01153
192.44636 0.01254
192.68505 0.01427
192.87153 0.01650
193.01730 0.01903
193.13351 0.02177
193.22879 0.02463
193.30923 0.02757
193.37872 0.03056
193.44021 0.03358
193.49558 0.03662
193.54620 0.03966
193.59315 0.04270
193.63711 0.04572
193.67868 0.04874
193.71818 0.05173
193.75612 0.05470
193.79265 0.05764
193.82803 0.06056
193.86242 0.06344
193.89597 0.06628
193.92876 0.06909
193.96092 0.07186
193.99248 0.07459
194.02356 0.07728
194.05417 0.07992
194.08442 0.08251
194.11431 0.08506
194.14386 0.08755
194.17316 0.08999
194.20219 0.09238
194.23098 0.09472
194.25957 0.09699
194.28796 0.09921
194.31615 0.10137
194.34421 0.10347
194.37212 0.10550
194.39987 0.10748
194.42749 0.10938
194.45502 0.11123
194.48244 0.11300
194.50973 0.11471
194.53694 0.11635
194.56407 0.11792
194.59111 0.11942
194.61810 0.12085
194.64498 0.12221
194.67182 0.12349
194.69858 0.12470
194.72530 0.12584
194.75196 0.12690
194.77857 0.12788
194.80514 0.12879
194.83165 0.12962
194.85815 0.13038
194.88458 0.13106
194.91098 0.13166
194.93734 0.13218
194.96368 0.13262
194.98998 0.13299
195.01627 0.13327
195.04251 0.13348
195.06874 0.13361
195.09496 0.13366
195.12114 0.13363
195.14730 0.13352
195.17345 0.13334
195.19958 0.13307
195.22570 0.13273
195.25182 0.13231
195.27790 0.13181
195.30399 0.13123
195.33006 0.13058
195.35614 0.12985
195.38220 0.12904
195.40827 0.12817
195.43433 0.12721
195.46039 0.12618
195.48646 0.12508
195.51253 0.12390
195.53857 0.12265
195.56466 0.12133
195.59076 0.11994
195.61684 0.11849
195.64295 0.11696
195.66908 0.11537
195.69522 0.11370
195.72138 0.11198
195.74757 0.11019
195.77377 0.10833
195.80002 0.10642
195.82631 0.10444
195.85260 0.10240
195.87896 0.10031
195.90536 0.09815
195.93182 0.09594
195.95833 0.09368
195.98492 0.09137
196.01157 0.08900
196.03827 0.08658
196.06511 0.08411
196.09204 0.08160
196.11908 0.07904
196.14626 0.07644
196.17359 0.07380
196.20105 0.07111
196.22875 0.06839
196.25663 0.06563
196.28477 0.06283
196.31325 0.06000
196.34199 0.05714
196.37120 0.05424
196.40088 0.05132
196.43109 0.04837
196.46196 0.04540
196.49376 0.04241
196.52652 0.03940
196.56054 0.03637
196.59631 0.03332
196.63416 0.03027
196.67499 0.02720
196.71994 0.02413
196.77064 0.02106
196.82994 0.01800
196.90350 0.01496
197.00156 0.01198
197.14670 0.00909
197.39634 0.00645
197.88613 0.00451
198.63570 0.00436
199.17101 0.00612
199.44362 0.00869
199.59838 0.01154
199.70094 0.01449
199.77705 0.01749
199.83790 0.02051
199.88944 0.02354
199.93494 0.02656
199.97608 0.02957
200.01417 0.03257
200.05008 0.03555
200.08417 0.03851
200.11692 0.04144
200.14858 0.04436
200.17943 0.04724
200.20947 0.05009
200.23902 0.05292
200.26798 0.05571
200.29657 0.05846
200.32479 0.06118
200.35267 0.06386
200.38031 0.06650
200.40773 0.06911
200.43487 0.07166
200.46188 0.07418
200.48871 0.07664
200.51540 0.07906
200.54196 0.08143
200.56837 0.08375
200.59468 0.08602
200.62091 0.08823
200.64704 0.09039
200.67306 0.09249
200.69905 0.09454
200.72494 0.09653
200.75078 0.09847
200.77652 0.10034
200.80226 0.10215
200.82792 0.10389
200.85352 0.10558
200.87908 0.10720
200.90461 0.10875
200.93008 0.11024
200.95552 0.11167
200.98090 0.11302
201.00629 0.11431
201.03161 0.11553
201.05691 0.11668
201.08218 0.11776
201.10743 0.11876
201.13265 0.11970
201.15783 0.12056
201.18298 0.12136
201.20811 0.12208
201.23322 0.12272
201.25830 0.12330
201.28335 0.12380
201.30841 0.12422
201.33340 0.12458
201.35841 0.12485
201.38337 0.12506
201.40833 0.12519
201.43325 0.12525
201.45815 0.12523
201.48304 0.12514
201.50790 0.12497
201.53274 0.12473
201.55756 0.12441
201.58236 0.12403
201.60715 0.12357
201.63190 0.12304
201.65664 0.12243
201.68137 0.12176
201.70607 0.12101
201.73072 0.12019
201.75540 0.11930
201.78001 0.11834
201.80461 0.11731
201.82920 0.11622
201.85374 0.11506
201.87827 0.11383
201.90278 0.11253
201.92726 0.11117
201.95170 0.10975
201.97611 0.10826
202.00050 0.10670
202.02485 0.10509
202.04917 0.10342
202.07344 0.10169
202.09768 0.09990
202.12188 0.09805
202.14604 0.09614
202.17016 0.09419
202.19421 0.09217
202.21820 0.09011
202.24215 0.08799
202.26602 0.08583
202.28985 0.08361
202.31358 0.08135
202.33727 0.07905
202.36083 0.07670
202.38429 0.07430
202.40769 0.07187
202.43091 0.06939
202.45404 0.06688
202.47699 0.06434
202.49981 0.06175
202.52240 0.05914
202.54473 0.05649
202.56687 0.05381
202.58870 0.05110
202.61012 0.04836
202.63114 0.04561
202.65171 0.04282
202.67162 0.04002
202.69077 0.03719
202.70899 0.03436
202.72607 0.03150
202.74154 0.02863
202.75487 0.02575
202.76539 0.02286
202.77183 0.01997
202.77188 0.01708
202.76204 0.01419
202.73439 0.01133
202.67232 0.00851
202.52709 0.00583
202.13543 0.00356
201.24093 0.00295
200.61987 0.00470
200.39662 0.00725
200.30658 0.01001
200.26629 0.01283
200.24967 0.01568
200.24575 0.01853
200.24954 0.02138
200.25813 0.02422
200.27027 0.02705
200.28474 0.02986
200.30096 0.03265
200.31849 0.03542
200.33708 0.03817
200.35651 0.04090
200.37653 0.04360
200.39712 0.04627
200.41817 0.04891
200.43953 0.05153
200.46120 0.05410
200.48318 0.05664
200.50536 0.05915
200.52774 0.06162
200.55027 0.06405
200.57294 0.06644
200.59574 0.06879
200.61867 0.07110
200.64170 0.07336
200.66477 0.07557
200.68795 0.07774
200.71119 0.07986
200.73450 0.08193
200.75784 0.08395
200.78123 0.08592
200.80465 0.08783
200.82812 0.08969
200.85162 0.09150
200.87515 0.09325
200.89873 0.09494
200.92230 0.09657
200.94587 0.09815
200.96948 0.09967
200.99313 0.10112
201.01675 0.10251
201.04039 0.10384
201.06403 0.10511
201.08768 0.10632
201.11134 0.10746
201.13502 0.10854
201.15867 0.10955
201.18233 0.11049
201.20597 0.11137
201.22962 0.11218
201.25325 0.11292
201.27690 0.11360
201.30053 0.11421
201.32414 0.11475
201.34774 0.11522
201.37133 0.11563
201.39492 0.11596
201.41848 0.11623
201.44201 0.11642
201.46554 0.11655
201.48904 0.11661
201.51253 0.11660
201.53600 0.11652
201.55943 0.11638
201.58286 0.11616
201.60624 0.11588
201.62960 0.11553
201.65291 0.11511
201.67620 0.11462
201.69945 0.11406
201.72266 0.11345
201.74584 0.11276
201.76898 0.11201
201.79207 0.11119
201.81510 0.11031
201.83810 0.10936
201.86104 0.10836
201.88392 0.10728
201.90672 0.10615
201.92948 0.10496
201.95218 0.10370
201.97478 0.10239
201.99730 0.10102
202.01977 0.09959
202.04211 0.09810
202.06436 0.09656
202.08652 0.09496
202.10855 0.09332
202.13047 0.09161
202.15226 0.08986
202.17391 0.08806
202.19541 0.08620
202.21674 0.08430
202.23789 0.08236
202.25881 0.08037
202.27955 0.07833
202.30003 0.07625
202.32025 0.07413
202.34021 0.07198
202.35980 0.06978
202.37907 0.06755
202.39794 0.06528
202.41636 0.06298
202.43425 0.06064
202.45159 0.05828
202.46832 0.05589
202.48426 0.05347
202.49938 0.05103
202.51350 0.04857
202.52645 0.04609
202.53806 0.04359
202.54804 0.04108
202.55601 0.03855
202.56175 0.03602
202.56457 0.03349
202.56378 0.03096
202.55843 0.02843
202.54721 0.02593
202.52857 0.02345
202.49954 0.02102
202.45683 0.01865
202.39516 0.01638
202.30700 0.01427
202.18249 0.01240
202.01093 0.01089
201.78973 0.00991
201.53553 0.00962
201.28676 0.01009
201.07795 0.01121
200.91958 0.01281
200.80554 0.01473
200.72505 0.01686
200.66879 0.01912
200.63013 0.02146
200.60395 0.02385
200.58729 0.02628
200.57769 0.02873
200.57352 0.03118
200.57353 0.03364
200.57697 0.03609
200.58307 0.03853
200.59137 0.04096
200.60156 0.04336
200.61322 0.04575
200.62622 0.04812
200.64026 0.05046
200.65528 0.05277
200.67107 0.05505
200.68762 0.05730
200.70471 0.05952
200.72235 0.06170
200.74046 0.06385
200.75900 0.06595
200.77785 0.06802
200.79708 0.07005
200.81659 0.07203
200.83638 0.07397
200.85638 0.07587
200.87658 0.07772
200.89700 0.07952
200.91757 0.08128
200.93829 0.08299
200.95919 0.08465
200.98018 0.08625
201.00130 0.08780
201.02252 0.08931
201.04384 0.09075
201.06525 0.09214
201.08670 0.09348
201.10825 0.09476
201.12988 0.09598
201.15154 0.09715
201.17327 0.09826
201.19504 0.09931
201.21682 0.10030
201.23867 0.10123
201.26054 0.10210
201.28242 0.10291
201.30434 0.10365
201.32626 0.10434
201.34822 0.10497
201.37016 0.10552
201.39212 0.10603
201.41408 0.10646
201.43603 0.10683
201.45800 0.10715
201.47994 0.10739
201.50186 0.10758
201.52379 0.10770
201.54570 0.10776
201.56758 0.10776
201.58942 0.10769
201.61127 0.10756
201.63306 0.10737
201.65482 0.10712
201.67655 0.10680
201.69821 0.10642
201.71985 0.10598
201.74142 0.10548
201.76295 0.10492
201.78442 0.10430
201.80583 0.10362
201.82715 0.10288
201.84840 0.10208
201.86960 0.10122
201.89069 0.10031
201.91168 0.09934
201.93257 0.09831
201.95339 0.09723
201.97404 0.09609
201.99462 0.09491
202.01501 0.09366
202.03532 0.09237
202.05544 0.09102
202.07542 0.08963
202.09519 0.08818
202.11481 0.08669
202.13421 0.08515
202.15337 0.08357
202.17231 0.08194
202.19098 0.08027
202.20938 0.07856
202.22746 0.07680
202.24519 0.07501
202.26258 0.07318
202.27955 0.07131
202.29611 0.06941
202.31219 0.06747
202.32770 0.06550
202.34263 0.06351
202.35688 0.06148
202.37044 0.05943
202.38311 0.05736
202.39490 0.05526
202.40566 0.05314
202.41525 0.05101
202.42348 0.04886
202.43021 0.04670
202.43516 0.04453
202.43803 0.04236
202.43865 0.04020
202.43642 0.03803
202.43101 0.03588
202.42180 0.03375
202.40803 0.03164
202.38883 0.02957
202.36324 0.02756
202.32980 0.02561
202.28723 0.02375
202.23347 0.02200
202.16708 0.02040
202.08628 0.01899
201.99011 0.01781
201.87932 0.01692
201.75669 0.01636
201.62734 0.01617
201.49801 0.01635
201.37567 0.01690
201.26548 0.01778
201.16994 0.01893
201.08953 0.02032
201.02363 0.02188
200.97030 0.02358
200.92780 0.02539
200.89466 0.02728
200.86906 0.02924
200.84996 0.03123
200.83611 0.03326
200.82682 0.03531
200.82131 0.03737
200.81895 0.03943
200.81931 0.04150
200.82200 0.04356
200.82667 0.04561
200.83310 0.04764
200.84100 0.04966
200.85020 0.05167
200.86057 0.05364
200.87196 0.05560
200.88423 0.05752
200.89728 0.05942
200.91108 0.06129
200.92548 0.06313
200.94044 0.06493
200.95594 0.06669
200.97185 0.06842
200.98823 0.07011
201.00497 0.07177
201.02204 0.07338
201.03944 0.07494
201.05711 0.07647
201.07502 0.07795
201.09320 0.07939
201.11155 0.08078
201.13010 0.08213
201.14885 0.08342
201.16775 0.08467
201.18679 0.08587
201.20596 0.08702
201.22527 0.08812
201.24468 0.08916
201.26418 0.09015
201.28380 0.09110
201.30347 0.09199
201.32321 0.09282
201.34302 0.09360
201.36290 0.09433
201.38284 0.09500
201.40278 0.09562
201.42278 0.09618
201.44281 0.09668
201.46288 0.09713
201.48294 0.09753
201.50300 0.09786
201.52311 0.09814
201.54318 0.09837
201.56327 0.09854
201.58335 0.09865
201.60338 0.09870
201.62343 0.09870
201.64342 0.09865
201.66341 0.09853
201.68333 0.09836
201.70320 0.09814
201.72305 0.09786
201.74285 0.09752
201.76256 0.09713
201.78222 0.09669
201.80181 0.09619
201.82131 0.09563
201.84072 0.09503
201.86003 0.09437
201.87925 0.09366
201.89835 0.09290
201.91733 0.09209
201.93619 0.09123
201.95491 0.09032
201.97346 0.08936
201.99185 0.08836
202.01008 0.08730
202.02812 0.08620
202.04598 0.08506
202.06360 0.08387
202.08098 0.08264
202.09814 0.08136
202.11502 0.08005
202.13162 0.07869
202.14790 0.07730
202.16384 0.07587
202.17942 0.07440
202.19461 0.07290
202.20938 0.07136
202.22366 0.06979
202.23748 0.06820
202.25073 0.06657
202.26340 0.06491
202.27538 0.06324
202.28671 0.06153
202.29718 0.05981
202.30684 0.05806
202.31552 0.05630
202.32318 0.05453
202.32964 0.05274
202.33485 0.05094
202.33861 0.04914
202.34076 0.04733
202.34113 0.04553
202.33952 0.04373
202.33561 0.04194
202.32923 0.04017
202.32002 0.03842
202.30761 0.03670
202.29166 0.03501
202.27157 0.03338
202.24705 0.03179
202.21762 0.03028
202.18265 0.02885
202.14185 0.02752
202.09475 0.02631
202.04116 0.02523
201.98132 0.02431
201.91546 0.02356
201.84471 0.02300
201.77015 0.02265
201.69368 0.02251
201.61703 0.02260
201.54231 0.02290
201.47119 0.02340
201.40489 0.02409
201.34448 0.02496
201.29044 0.02598
201.24268 0.02713
201.20121 0.02839
201.16570 0.02974
201.13566 0.03118
201.11054 0.03267
201.09001 0.03422
201.07345 0.03581
201.06050 0.03743
201.05073 0.03908
201.04376 0.04074
201.03935 0.04241
201.03714 0.04409
201.03694 0.04577
201.03849 0.04744
201.04166 0.04911
201.04623 0.05076
201.05213 0.05240
201.05913 0.05403
201.06714 0.05564
201.07608 0.05722
201.08589 0.05878
201.09646 0.06031
201.10770 0.06182
201.11958 0.06330
201.13204 0.06475
201.14500 0.06617
201.15846 0.06755
201.17233 0.06890
201.18665 0.07022
201.20130 0.07150
201.21624 0.07274
201.23154 0.07394
201.24708 0.07510
201.26294 0.07622
201.27896 0.07730
201.29526 0.07833
201.31170 0.07933
201.32836 0.08028
201.34518 0.08118
201.36212 0.08205
201.37922 0.08286
201.39646 0.08363
201.41377 0.08436
201.43120 0.08503
201.44872 0.08566
201.46635 0.08624
201.48399 0.08678
201.50171 0.08726
201.51949 0.08770
201.53728 0.08809
201.55513 0.08843
201.57301 0.08872
201.59090 0.08896
201.60880 0.08915
201.62667 0.08930
201.64457 0.08939
201.66244 0.08944
201.68029 0.08944
201.69811 0.08938
201.71588 0.08929
201.73361 0.08914
201.75129 0.08894
201.76892 0.08870
201.78649 0.08841
201.80394 0.08807
201.82136 0.08768
201.83865 0.08725
201.85585 0.08677
201.87290 0.08625
201.88984 0.08568
201.90669 0.08507
201.92337 0.08441
201.93986 0.08372
201.95623 0.08298
201.97239 0.08219
201.98838 0.08137
202.00415 0.08051
202.01970 0.07961
202.03499 0.07866
202.05004 0.07769
202.06482 0.07667
202.07932 0.07562
202.09349 0.07454
202.10732 0.07342
202.12082 0.07227
202.13386 0.07109
202.14656 0.06988
202.15876 0.06865
202.17048 0.06738
202.18172 0.06610
202.19235 0.06478
202.20243 0.06345
202.21183 0.06209
202.22051 0.06072
202.22850 0.05933
202.23562 0.05793
202.24184 0.05651
202.24713 0.05508
202.25136 0.05365
202.25447 0.05221
202.25637 0.05077
202.25692 0.04933
202.25607 0.04790
202.25360 0.04647
202.24948 0.04506
202.24348 0.04366
202.23552 0.04229
202.22544 0.04094
202.21297 0.03962
202.19803 0.03834
202.18054 0.03711
202.16018 0.03593
202.13689 0.03480
202.11056 0.03374
202.08113 0.03277
202.04864 0.03187
202.01311 0.03107
201.97470 0.03037
201.93360 0.02978
201.89020 0.02931
201.84510 0.02896
201.79864 0.02874
201.75156 0.02865
201.70455 0.02869
201.65807 0.02887
201.61302 0.02916
201.56969 0.02958
201.52866 0.03012
201.49021 0.03076
201.45462 0.03149
201.42209 0.03232
201.39264 0.03322
201.36620 0.03420
201.34282 0.03524
201.32230 0.03633
201.30458 0.03747
201.28945 0.03864
201.27669 0.03985
201.26630 0.04108
201.25795 0.04234
201.25152 0.04361
201.24698 0.04489
201.24405 0.04618
201.24261 0.04747
201.24264 0.04876
201.24389 0.05004
201.24642 0.05132
201.24995 0.05260
201.25451 0.05385
201.26000 0.05510
201.26636 0.05633
201.27346 0.05754
201.28129 0.05873
201.28977 0.05990
201.29889 0.06104
201.30856 0.06217
201.31870 0.06326
201.32939 0.06433
201.34049 0.06537
201.35201 0.06637
201.36389 0.06735
201.37611 0.06830
201.38869 0.06922
201.40153 0.07010
201.41467 0.07095
201.42803 0.07176
201.44162 0.07254
201.45545 0.07328
201.46947 0.07398
201.48363 0.07465
201.49799 0.07528
201.51245 0.07587
201.52705 0.07642
201.54180 0.07694
201.55665 0.07741
201.57154 0.07785
201.58654 0.07824
201.60163 0.07860
201.61677 0.07891
201.63191 0.07919
201.64712 0.07942
201.66234 0.07961
201.67760 0.07977
201.69284 0.07988
201.70808 0.07995
201.72330 0.07998
201.73852 0.07997
201.75369 0.07992
201.76882 0.07983
201.78388 0.07971
201.79889 0.07954
201.81380 0.07933
201.82865 0.07908
201.84343 0.07880
201.85806 0.07848
201.87256 0.07812
201.88697 0.07772
201.90124 0.07729
201.91534 0.07682
201.92932 0.07632
201.94309 0.07578
201.95666 0.07520
201.97005 0.07460
201.98321 0.07396
201.99616 0.07329
202.00886 0.07258
202.02128 0.07185
202.03342 0.07109
202.04525 0.07030
202.05678 0.06948
202.06793 0.06864
202.07874 0.06777
202.08916 0.06687
202.09920 0.06596
202.10877 0.06502
202.11789 0.06406
202.12648 0.06308
202.13459 0.06209
202.14211 0.06108
202.14904 0.06005
202.15535 0.05902
202.16101 0.05797
202.16593 0.05691
202.17009 0.05584
202.17345 0.05477
202.17593 0.05370
202.17754 0.05262
202.17818 0.05155
202.17781 0.05048
202.17638 0.04942
202.17383 0.04836
202.17006 0.04732
202.16503 0.04630
202.15875 0.04529
202.15102 0.04430
202.14194 0.04334
202.13137 0.04241
202.11931 0.04151
202.10562 0.04065
202.09049 0.03983
202.07372 0.03906
202.05539 0.03833
202.03556 0.03766
202.01428 0.03705
201.99156 0.03650
201.96756 0.03601
201.94236 0.03558
201.91623 0.03523
201.88926 0.03496
201.86168 0.03476
201.83376 0.03463
201.80565 0.03458
201.77757 0.03461
201.74984 0.03471
201.72259 0.03489
201.69609 0.03514
201.67046 0.03546
201.64606 0.03584
201.62277 0.03629
201.60081 0.03679
201.58032 0.03736
201.56128 0.03796
201.54374 0.03862
201.52773 0.03932
201.51327 0.04005
201.50035 0.04082
201.48888 0.04162
201.47879 0.04244
201.47019 0.04328
201.46283 0.04414
201.45681 0.04502
201.45202 0.04591
201.44836 0.04680
201.44580 0.04771
201.44429 0.04861
201.44375 0.04951
201.44415 0.05042
201.44545 0.05132
201.44752 0.05221
201.45037 0.05310
201.45395 0.05397
201.45819 0.05484
201.46310 0.05568
201.46857 0.05652
201.47463 0.05734
201.48115 0.05814
201.48823 0.05892
201.49569 0.05969
201.50362 0.06043
201.51192 0.06115
201.52057 0.06185
201.52959 0.06253
201.53891 0.06318
201.54854 0.06380
201.55842 0.06440
201.56856 0.06498
201.57892 0.06552
201.58951 0.06604
201.60030 0.06653
201.61124 0.06699
201.62236 0.06743
201.63361 0.06783
201.64501 0.06821
201.65648 0.06855
201.66809 0.06886
201.67975 0.06915
201.69152 0.06940
201.70336 0.06963
201.71522 0.06982
201.72711 0.06998
201.73904 0.07011
201.75103 0.07021
201.76293 0.07028
201.77486 0.07032
201.78677 0.07033
201.79865 0.07031
201.81051 0.07026
201.82228 0.07018
201.83398 0.07007
201.84561 0.06993
201.85719 0.06976
201.86862 0.06957
201.87997 0.06934
201.89119 0.06909
201.90226 0.06881
201.91319 0.06850
201.92396 0.06817
201.93455 0.06781
201.94497 0.06743
201.95519 0.06702
201.96518 0.06659
201.97499 0.06613
201.98451 0.06565
201.99383 0.06515
202.00282 0.06463
202.01157 0.06410
202.02000 0.06354
202.02814 0.06296
202.03591 0.06237
202.04335 0.06175
202.05040 0.06113
202.05706 0.06049
202.06334 0.05984
202.06921 0.05917
202.07461 0.05850
202.07953 0.05781
202.08399 0.05712
202.08797 0.05642
202.09136 0.05572
202.09423 0.05501
202.09655 0.05430
202.09822 0.05359
202.09933 0.05288
202.09973 0.05217
202.09955 0.05146
202.09870 0.05077
202.09711 0.05007
202.09482 0.04939
202.09180 0.04872
202.08800 0.04806
202.08350 0.04742
202.07830 0.04679
202.07220 0.04618
202.06542 0.04559
202.05788 0.04503
202.04954 0.04449
202.04051 0.04397
202.03066 0.04348
202.02021 0.04303
202.00907 0.04260
201.99730 0.04220
201.98493 0.04184
201.97205 0.04152
201.95862 0.04123
201.94487 0.04099
201.93073 0.04078
201.91628 0.04060
201.90162 0.04047
201.88689 0.04038
201.87207 0.04033
201.85727 0.04032
201.84264 0.04035
201.82809 0.04041
201.81389 0.04051
201.79997 0.04066
201.78646 0.04083
201.77339 0.04104
201.76084 0.04128
201.74882 0.04156
201.73739 0.04186
201.72656 0.04219
201.71640 0.04255
201.70688 0.04293
201.69812 0.04333
201.69000 0.04376
201.68265 0.04420
201.67600 0.04465
201.66999 0.04513
201.66470 0.04561
201.66015 0.04611
201.65625 0.04661
201.65301 0.04712
201.65037 0.04764
201.64843 0.04816
201.64704 0.04868
201.64624 0.04920
201.64605 0.04972
201.64635 0.05024
201.64721 0.05076
201.64857 0.05127
201.65037 0.05178
201.65262 0.05228
201.65536 0.05277
201.65848 0.05325
201.66197 0.05372
201.66583 0.05418
201.67007 0.05463
201.67457 0.05507
201.67949 0.05549
201.68460 0.05590
201.69004 0.05630
201.69568 0.05668
201.70163 0.05704
201.70774 0.05739
201.71408 0.05772
201.72056 0.05803
201.72729 0.05833
201.73410 0.05861
201.74112 0.05887
201.74826 0.05911
201.75549 0.05934
201.76283 0.05954
201.77024 0.05973
201.77773 0.05989
201.78526 0.06004
201.79288 0.06017
201.80053 0.06028
201.80821 0.06037
201.81589 0.06044
201.82358 0.06049
201.83124 0.06052
201.83890 0.06054
201.84652 0.06054
201.85410 0.06051
201.86162 0.06047
201.86912 0.06041
201.87650 0.06033
201.88383 0.06024
201.89105 0.06013
201.89813 0.06000
201.90515 0.05986
201.91200 0.05970
201.91875 0.05952
201.92534 0.05934
201.93181 0.05913
201.93804 0.05891
201.94419 0.05868
201.95008 0.05844
201.95585 0.05818
201.96134 0.05791
201.96668 0.05763
201.97179 0.05734
201.97666 0.05705
201.98124 0.05674
201.98566 0.05642
201.98975 0.05610
201.99363 0.05577
201.99728 0.05543
202.00059 0.05509
202.00359 0.05475
202.00638 0.05440
202.00880 0.05405
202.01097 0.05369
202.01283 0.05334
202.01433 0.05298
202.01555 0.05263
202.01644 0.05227
202.01707 0.05192
202.01731 0.05157
202.01723 0.05123
202.01682 0.05089
202.01612 0.05056
202.01512 0.05023
202.01380 0.04991
202.01213 0.04960
202.01023 0.04929
202.00799 0.04900
202.00542 0.04871
202.00263 0.04844
201.99961 0.04818
201.99623 0.04792
201.99263 0.04769
201.98887 0.04746
201.98489 0.04725
201.98070 0.04705
201.97628 0.04687
201.97175 0.04670
201.96705 0.04655
201.96225 0.04641
201.95737 0.04628
201.95239 0.04617
201.94736 0.04608
201.94228 0.04600
201.93720 0.04594
201.93208 0.04589
201.92707 0.04586
201.92204 0.04583
201.91708 0.04583
201.91220 0.04584
201.90749 0.04586
201.90283 0.04589
201.89831 0.04594
201.89393 0.04600
201.88974 0.04607
201.88571 0.04615
201.88187 0.04624
201.87824 0.04634
201.87481 0.04645
201.87158 0.04657
201.86861 0.04669
201.86583 0.04683
201.86326 0.04696
201.86099 0.04711
201.85888 0.04725
201.85710 0.04741
201.85548 0.04756
201.85414 0.04772
201.85300 0.04788
201.85206 0.04804
201.85139 0.04820
201.85092 0.04836
201.85068 0.04852
201.85067 0.04868
201.85079 0.04883
201.85119 0.04899
201.85177 0.04914
201.85252 0.04929
201.85341 0.04943
201.85452 0.04957
201.85575 0.04971
201.85716 0.04984
201.85865 0.04997
201.86036 0.05009
201.86215 0.05020
201.86402 0.05031
201.86606 0.05041
201.86815 0.05051
201.87031 0.05059
201.87261 0.05067
201.87490 0.05075
201.87732 0.05081
201.87978 0.05087
201.88224 0.05092
201.88479 0.05096
201.88730 0.05100
201.88985 0.05103
201.89241 0.05105
201.89498 0.05107
201.89746 0.05107
201.89999 0.05107
201.90249 0.05107
201.90495 0.05105
201.90733 0.05103
201.90968 0.05101
201.91200 0.05097
201.91424 0.05094
201.91641 0.05089
201.91854 0.05084
201.92050 0.05079
201.92244 0.05073
201.92425 0.05067
201.92598 0.05060
201.92760 0.05053
201.92917 0.05046
201.93058 0.05038
201.93187 0.05030
201.93307 0.05022
201.93414 0.05014
201.93510 0.05006
201.93595 0.04998
201.93669 0.04989
201.93728 0.04981
201.93775 0.04973
201.93813 0.04965
201.93836 0.04957
201.93850 0.04949
201.93855 0.04942
201.93846 0.04934
201.93827 0.04927
201.93799 0.04920

